subject,trial,native_language,word,class,frequency,length,correct,RT,
A1,23,English,owl,animal,4.859812,3,correct,566.9998278,
A1,27,English,mole,animal,4.60517,4,correct,548.9997576,
A1,29,English,cherry,plant,4.997212,6,correct,572.0000049,
A1,30,English,pear,plant,4.727388,4,correct,486.0001828,
A1,32,English,dog,animal,7.667626,3,correct,414.0000108,
A1,33,English,blackberry,plant,4.060443,10,correct,483.0001673,
A1,34,English,strawberry,plant,4.75359,10,correct,417.9998192,
A1,38,English,squirrel,animal,4.70953,8,correct,524.9998621,
A1,41,English,radish,plant,3.044522,6,correct,638.9997097,
A1,42,English,almond,plant,4.204693,6,correct,485.0000529,
A1,45,English,whale,animal,5.298317,5,correct,462.999975,
A1,46,English,reindeer,animal,4.043051,8,correct,513.9998636,
A1,47,English,blueberry,plant,2.484907,9,correct,404.9999728,
A1,48,English,lemon,plant,5.631212,5,correct,417.9998192,
A1,53,English,bee,animal,5.700444,3,correct,556.9998664,
A1,54,English,goat,animal,6.228511,4,correct,398.9998337,
A1,55,English,eggplant,plant,1.791759,8,correct,536.9999492,
A1,58,English,tomato,plant,5.545177,6,correct,590.9999897,
A1,59,English,peanut,plant,4.59512,6,correct,387.0001188,
A1,61,English,bat,animal,5.918894,3,incorrect,456.9998214,
A1,62,English,mustard,plant,4.442651,7,correct,847.0002586,
A1,64,English,magpie,animal,2.995732,6,correct,916.9995669,
A1,65,English,stork,animal,3.044522,5,correct,606.0000084,
A1,67,English,goose,animal,5.267858,5,correct,614.9998353,
A1,68,English,squid,animal,3.970292,5,correct,555.9998364,
A1,75,English,carrot,plant,4.976734,6,correct,496.999987,
A1,76,English,crocodile,animal,4.615121,9,correct,499.9999508,
A1,79,English,tortoise,animal,4.624973,8,correct,1229.999449,
A1,80,English,spider,animal,4.844187,6,correct,442.0000521,
A1,82,English,grape,plant,5.192957,5,correct,496.999987,
A1,88,English,fox,animal,5.652489,3,correct,581.9997394,
A1,91,English,potato,plant,6.461468,6,correct,721.9998997,
A1,93,English,frog,animal,5.129899,4,correct,675.0002087,
A1,94,English,beetroot,plant,3.555348,8,correct,573.9997725,
A1,96,English,asparagus,plant,3.663562,9,correct,532.9997739,
A1,97,English,mouse,animal,5.805135,5,correct,398.9998337,
A1,98,English,dolphin,animal,4.007333,7,correct,436.9999147,
A1,100,English,pineapple,plant,3.988984,9,correct,457.9999157,
A1,102,English,lettuce,plant,4.812184,7,NA,NA,
A1,106,English,sheep,animal,6.577861,5,correct,441.0000549,
A1,108,English,cucumber,plant,4.454347,8,correct,592.0002161,
A1,109,English,gherkin,plant,2.079442,7,correct,502.9999144,
A1,111,English,gull,animal,4.418841,4,correct,590.9999897,
A1,113,English,pig,animal,6.660575,3,correct,494.0002385,
A1,119,English,camel,animal,6.109248,5,correct,576.0001954,
A1,120,English,shark,animal,5.880533,5,correct,449.0000504,
A1,123,English,vulture,animal,4.248495,7,correct,676.9998152,
A1,125,English,snake,animal,6.120297,5,correct,554.0001735,
A1,126,English,donkey,animal,5.541264,6,correct,440.0001202,
A1,127,English,broccoli,plant,2.833213,8,correct,475.0000931,
A1,129,English,apricot,plant,3.828641,7,correct,791.0000255,
A1,133,English,leek,plant,3.332205,4,correct,623.0002998,
A1,134,English,clove,plant,3.663562,5,correct,563.0002094,
A1,135,English,banana,plant,5.023881,6,correct,494.0002385,
A1,136,English,lion,animal,6.098074,4,correct,450.9998469,
A1,139,English,elephant,animal,6.063785,8,correct,558.9997355,
A1,141,English,hedgehog,animal,3.637586,8,correct,995.9997434,
A1,144,English,eagle,animal,5.117994,5,correct,547.9998428,
A1,146,English,apple,plant,6.304449,5,correct,453.9999101,
A1,148,English,kiwi,plant,3.044522,4,correct,646.9998095,
A1,151,English,wasp,animal,4.682131,4,correct,809.9997994,
A1,152,English,cat,animal,7.086738,3,correct,467.9998615,
A1,153,English,paprika,plant,2.484907,7,correct,734.9996331,
A1,157,English,ant,animal,5.347108,3,correct,875.9999203,
A1,162,English,bunny,animal,3.332205,5,correct,581.9997394,
A1,163,English,beaver,animal,3.951244,6,correct,530.9999887,
A1,164,English,horse,animal,7.77191,5,correct,413.0001681,
A1,167,English,mushroom,plant,5.537334,8,correct,464.0002078,
A1,168,English,woodpecker,animal,2.890372,10,correct,540.9998491,
A1,169,English,moose,animal,2.70805,5,correct,411.9998561,
A1,170,English,orange,plant,6.378426,6,correct,486.9999401,
A1,173,English,avocado,plant,3.433987,7,correct,489.9998084,
A1,174,English,chicken,animal,6.59987,7,correct,364.9998709,
A1,177,English,butterfly,animal,5.214936,9,correct,581.0001413,
A1,179,English,olive,plant,5.587249,5,correct,393.0001525,
A1,180,English,swan,animal,4.962845,4,correct,419.0000336,
A1,182,English,walnut,plant,4.49981,6,correct,393.0001525,
A1,184,English,melon,plant,4.127134,5,correct,535.0001354,
A1,185,English,monkey,animal,5.783825,6,correct,420.0001213,
A3,28,Other,strawberry,plant,4.75359,10,correct,608.0000718,
A3,29,Other,crocodile,animal,4.615121,9,correct,552.9999992,
A3,32,Other,cherry,plant,4.997212,6,correct,592.9997634,
A3,34,Other,bunny,animal,3.332205,5,correct,574.9999765,
A3,35,Other,paprika,plant,2.484907,7,correct,826.0001871,
A3,36,Other,lemon,plant,5.631212,5,correct,524.0001654,
A3,40,Other,clove,plant,3.663562,5,correct,547.0001081,
A3,41,Other,ant,animal,5.347108,3,correct,607.0001268,
A3,44,Other,pig,animal,6.660575,3,correct,562.0000844,
A3,46,Other,shark,animal,5.880533,5,correct,602.9998814,
A3,48,Other,kiwi,plant,3.044522,4,correct,551.9999745,
A3,50,Other,owl,animal,4.859812,3,correct,653.9997701,
A3,51,Other,avocado,plant,3.433987,7,correct,560.0001211,
A3,52,Other,fox,animal,5.652489,3,correct,510.0001399,
A3,55,Other,goat,animal,6.228511,4,correct,581.9997394,
A3,56,Other,walnut,plant,4.49981,6,correct,560.0001211,
A3,57,Other,tortoise,animal,4.624973,8,NA,NA,
A3,58,Other,goose,animal,5.267858,5,correct,588.0000306,
A3,61,Other,eggplant,plant,1.791759,8,correct,592.0002161,
A3,64,Other,moose,animal,2.70805,5,correct,581.9997394,
A3,65,Other,gull,animal,4.418841,4,correct,671.9997712,
A3,67,Other,eagle,animal,5.117994,5,correct,520.000098,
A3,69,Other,stork,animal,3.044522,5,correct,524.9998621,
A3,70,Other,blueberry,plant,2.484907,9,correct,602.9998814,
A3,71,Other,squid,animal,3.970292,5,correct,534.000086,
A3,72,Other,asparagus,plant,3.663562,9,correct,630.0001138,
A3,73,Other,carrot,plant,4.976734,6,correct,554.0001735,
A3,74,Other,lettuce,plant,4.812184,7,correct,576.0001954,
A3,75,Other,snake,animal,6.120297,5,correct,512.000192,
A3,79,Other,hedgehog,animal,3.637586,8,correct,902.0004329,
A3,80,Other,butterfly,animal,5.214936,9,correct,588.0000306,
A3,82,Other,beaver,animal,3.951244,6,correct,513.0000794,
A3,83,Other,banana,plant,5.023881,6,correct,489.9998084,
A3,85,Other,cat,animal,7.086738,3,correct,631.0000867,
A3,89,Other,elephant,animal,6.063785,8,correct,578.0000759,
A3,90,Other,peanut,plant,4.59512,6,correct,625.0002189,
A3,93,Other,cucumber,plant,4.454347,8,correct,546.0000132,
A3,96,Other,chicken,animal,6.59987,7,correct,524.9998621,
A3,98,Other,mustard,plant,4.442651,7,correct,519.0000606,
A3,100,Other,apple,plant,6.304449,5,correct,563.0002094,
A3,105,Other,monkey,animal,5.783825,6,correct,479.0001928,
A3,106,Other,melon,plant,4.127134,5,correct,539.0002313,
A3,108,Other,leek,plant,3.332205,4,correct,520.9999782,
A3,109,Other,camel,animal,6.109248,5,correct,520.000098,
A3,111,Other,woodpecker,animal,2.890372,10,correct,656.9999879,
A3,115,Other,reindeer,animal,4.043051,8,correct,634.0000289,
A3,116,Other,donkey,animal,5.541264,6,correct,604.9997229,
A3,120,Other,orange,plant,6.378426,6,correct,513.9998636,
A3,122,Other,dolphin,animal,4.007333,7,correct,625.0002189,
A3,124,Other,blackberry,plant,4.060443,10,correct,587.0001058,
A3,126,Other,mole,animal,4.60517,4,correct,649.0001839,
A3,132,Other,bat,animal,5.918894,3,correct,634.0000289,
A3,133,Other,mouse,animal,5.805135,5,NA,NA,
A3,134,Other,whale,animal,5.298317,5,correct,588.9998918,
A3,136,Other,broccoli,plant,2.833213,8,correct,628.9998385,
A3,138,Other,frog,animal,5.129899,4,correct,578.9997235,
A3,139,Other,tomato,plant,5.545177,6,correct,699.9997655,
A3,143,Other,almond,plant,4.204693,6,correct,1146.000118,
A3,148,Other,vulture,animal,4.248495,7,correct,638.9997097,
A3,149,Other,mushroom,plant,5.537334,8,NA,NA,
A3,150,Other,lion,animal,6.098074,4,correct,578.9997235,
A3,154,Other,dog,animal,7.667626,3,correct,513.9998636,
A3,156,Other,pear,plant,4.727388,4,NA,NA,
A3,157,Other,radish,plant,3.044522,6,correct,1252.000561,
A3,158,Other,olive,plant,5.587249,5,correct,594.9997587,
A3,160,Other,bee,animal,5.700444,3,correct,614.0000441,
A3,161,Other,magpie,animal,2.995732,6,correct,621.9999423,
A3,162,Other,potato,plant,6.461468,6,correct,497.9999616,
A3,163,Other,pineapple,plant,3.988984,9,correct,596.0001984,
A3,165,Other,wasp,animal,4.682131,4,correct,739.0000584,
A3,168,Other,beetroot,plant,3.555348,8,correct,638.9997097,
A3,169,Other,squirrel,animal,4.70953,8,correct,611.9998271,
A3,171,Other,sheep,animal,6.577861,5,correct,662.000294,
A3,175,Other,apricot,plant,3.828641,7,correct,532.9997739,
A3,176,Other,horse,animal,7.77191,5,correct,614.9998353,
A3,179,Other,spider,animal,4.844187,6,correct,623.0002998,
A3,180,Other,grape,plant,5.192957,5,correct,643.0001773,
A3,181,Other,gherkin,plant,2.079442,7,correct,627.9998955,
A3,185,Other,swan,animal,4.962845,4,correct,590.0002732,
C,23,English,vulture,animal,4.248495,7,correct,688.0001115,
C,26,English,camel,animal,6.109248,5,correct,691.0001218,
C,27,English,kiwi,plant,3.044522,4,correct,516.000121,
C,28,English,avocado,plant,3.433987,7,correct,611.9998271,
C,29,English,gull,animal,4.418841,4,correct,535.9999137,
C,31,English,banana,plant,5.023881,6,correct,648.0001968,
C,33,English,whale,animal,5.298317,5,NA,NA,
C,35,English,donkey,animal,5.541264,6,correct,601.0000393,
C,36,English,shark,animal,5.880533,5,correct,490.9999373,
C,38,English,chicken,animal,6.59987,7,correct,563.0002094,
C,39,English,monkey,animal,5.783825,6,correct,479.9999501,
C,41,English,wasp,animal,4.682131,4,correct,479.9999501,
C,46,English,cat,animal,7.086738,3,correct,483.0001673,
C,53,English,eggplant,plant,1.791759,8,correct,593.9998103,
C,54,English,gherkin,plant,2.079442,7,correct,664.999973,
C,55,English,bat,animal,5.918894,3,correct,479.9999501,
C,56,English,bee,animal,5.700444,3,NA,NA,
C,59,English,spider,animal,4.844187,6,correct,547.0001081,
C,60,English,squid,animal,3.970292,5,correct,496.999987,
C,62,English,pineapple,plant,3.988984,9,correct,599.0002407,
C,66,English,swan,animal,4.962845,4,correct,653.9997701,
C,67,English,strawberry,plant,4.75359,10,correct,540.9998491,
C,69,English,sheep,animal,6.577861,5,correct,540.9998491,
C,70,English,walnut,plant,4.49981,6,correct,529.9999965,
C,72,English,tortoise,animal,4.624973,8,correct,663.0000065,
C,73,English,lion,animal,6.098074,4,correct,520.9999782,
C,74,English,goat,animal,6.228511,4,correct,510.0001399,
C,76,English,asparagus,plant,3.663562,9,correct,590.0002732,
C,78,English,apricot,plant,3.828641,7,correct,547.9998428,
C,80,English,pig,animal,6.660575,3,correct,522.9997573,
C,81,English,apple,plant,6.304449,5,correct,517.9998745,
C,82,English,mustard,plant,4.442651,7,correct,534.000086,
C,83,English,hedgehog,animal,3.637586,8,correct,656.9999879,
C,86,English,ant,animal,5.347108,3,correct,725.0002502,
C,88,English,fox,animal,5.652489,3,correct,608.999837,
C,89,English,elephant,animal,6.063785,8,correct,581.9997394,
C,90,English,moose,animal,2.70805,5,correct,499.9999508,
C,91,English,beetroot,plant,3.555348,8,correct,531.9997397,
C,93,English,carrot,plant,4.976734,6,correct,558.9997355,
C,100,English,snake,animal,6.120297,5,correct,528.9997715,
C,102,English,olive,plant,5.587249,5,correct,487.9998019,
C,109,English,pear,plant,4.727388,4,correct,452.9999432,
C,112,English,butterfly,animal,5.214936,9,correct,536.9999492,
C,113,English,blueberry,plant,2.484907,9,correct,541.9999992,
C,114,English,mole,animal,4.60517,4,correct,538.0002366,
C,115,English,cucumber,plant,4.454347,8,correct,535.9999137,
C,116,English,orange,plant,6.378426,6,correct,511.0002094,
C,122,English,lemon,plant,5.631212,5,correct,486.0001828,
C,124,English,horse,animal,7.77191,5,correct,623.9997701,
C,127,English,squirrel,animal,4.70953,8,correct,584.00001,
C,130,English,goose,animal,5.267858,5,correct,470.0001435,
C,131,English,bunny,animal,3.332205,5,NA,NA,
C,134,English,almond,plant,4.204693,6,correct,627.000288,
C,135,English,clove,plant,3.663562,5,correct,479.9999501,
C,137,English,peanut,plant,4.59512,6,correct,562.0000844,
C,140,English,beaver,animal,3.951244,6,correct,656.0001385,
C,141,English,mushroom,plant,5.537334,8,correct,479.0001928,
C,144,English,dog,animal,7.667626,3,correct,558.000021,
C,145,English,frog,animal,5.129899,4,correct,795.9998521,
C,146,English,stork,animal,3.044522,5,correct,551.0001052,
C,148,English,potato,plant,6.461468,6,correct,616.0000225,
C,150,English,radish,plant,3.044522,6,correct,729.0001954,
C,151,English,paprika,plant,2.484907,7,correct,604.9997229,
C,153,English,blackberry,plant,4.060443,10,correct,565.9999557,
C,159,English,lettuce,plant,4.812184,7,NA,NA,
C,161,English,mouse,animal,5.805135,5,correct,588.0000306,
C,162,English,crocodile,animal,4.615121,9,correct,475.0000931,
C,164,English,reindeer,animal,4.043051,8,correct,644.9997957,
C,165,English,broccoli,plant,2.833213,8,incorrect,525.9998881,
C,168,English,tomato,plant,5.545177,6,correct,592.9997634,
C,172,English,leek,plant,3.332205,4,correct,661.0001059,
C,174,English,magpie,animal,2.995732,6,correct,617.9997173,
C,175,English,owl,animal,4.859812,3,correct,479.0001928,
C,177,English,cherry,plant,4.997212,6,correct,483.0001673,
C,178,English,eagle,animal,5.117994,5,correct,540.9998491,
C,179,English,woodpecker,animal,2.890372,10,correct,547.0001081,
C,181,English,dolphin,animal,4.007333,7,correct,581.0001413,
C,182,English,melon,plant,4.127134,5,NA,NA,
C,184,English,grape,plant,5.192957,5,correct,510.0001399,
D,24,Other,peanut,plant,4.59512,6,correct,508.9999916,
D,28,Other,swan,animal,4.962845,4,correct,572.0000049,
D,29,Other,lettuce,plant,4.812184,7,correct,587.0001058,
D,30,Other,walnut,plant,4.49981,6,correct,552.9999992,
D,32,Other,beetroot,plant,3.555348,8,correct,627.000288,
D,33,Other,broccoli,plant,2.833213,8,correct,535.9999137,
D,37,Other,spider,animal,4.844187,6,correct,545.0001119,
D,41,Other,cucumber,plant,4.454347,8,correct,637.9998192,
D,44,Other,blackberry,plant,4.060443,10,correct,573.0001623,
D,46,Other,snake,animal,6.120297,5,correct,590.0002732,
D,47,Other,cat,animal,7.086738,3,correct,529.9999965,
D,48,Other,fox,animal,5.652489,3,correct,538.0002366,
D,49,Other,gherkin,plant,2.079442,7,correct,643.0001773,
D,51,Other,tomato,plant,5.545177,6,correct,692.0000307,
D,54,Other,squirrel,animal,4.70953,8,correct,646.9998095,
D,56,Other,woodpecker,animal,2.890372,10,correct,563.0002094,
D,59,Other,squid,animal,3.970292,5,correct,737.0000795,
D,60,Other,butterfly,animal,5.214936,9,correct,625.0002189,
D,61,Other,orange,plant,6.378426,6,correct,456.0000869,
D,62,Other,beaver,animal,3.951244,6,correct,568.999753,
D,63,Other,dog,animal,7.667626,3,correct,456.0000869,
D,64,Other,banana,plant,5.023881,6,correct,438.9998187,
D,65,Other,blueberry,plant,2.484907,9,correct,480.9998701,
D,66,Other,donkey,animal,5.541264,6,correct,506.0001673,
D,67,Other,pig,animal,6.660575,3,correct,400.9998287,
D,70,Other,paprika,plant,2.484907,7,correct,555.9998364,
D,72,Other,carrot,plant,4.976734,6,correct,726.9996528,
D,74,Other,camel,animal,6.109248,5,correct,499.9999508,
D,76,Other,whale,animal,5.298317,5,correct,623.0002998,
D,77,Other,mouse,animal,5.805135,5,correct,551.9999745,
D,78,Other,kiwi,plant,3.044522,4,correct,515.0000512,
D,80,Other,avocado,plant,3.433987,7,correct,631.9997509,
D,85,Other,cherry,plant,4.997212,6,correct,524.0001654,
D,86,Other,owl,animal,4.859812,3,correct,549.999847,
D,87,Other,reindeer,animal,4.043051,8,correct,675.0002087,
D,89,Other,lion,animal,6.098074,4,correct,525.9998881,
D,90,Other,tortoise,animal,4.624973,8,incorrect,525.9998881,
D,91,Other,olive,plant,5.587249,5,correct,614.0000441,
D,92,Other,mole,animal,4.60517,4,correct,578.9997235,
D,97,Other,apricot,plant,3.828641,7,correct,588.9998918,
D,99,Other,shark,animal,5.880533,5,correct,660.0001089,
D,100,Other,elephant,animal,6.063785,8,correct,541.9999992,
D,101,Other,radish,plant,3.044522,6,correct,582.9998914,
D,108,Other,bat,animal,5.918894,3,correct,538.0002366,
D,109,Other,goat,animal,6.228511,4,incorrect,549.999847,
D,110,Other,bunny,animal,3.332205,5,correct,599.0002407,
D,111,Other,grape,plant,5.192957,5,correct,476.0000694,
D,115,Other,lemon,plant,5.631212,5,correct,573.0001623,
D,117,Other,hedgehog,animal,3.637586,8,correct,734.9996331,
D,118,Other,apple,plant,6.304449,5,correct,492.0001395,
D,123,Other,horse,animal,7.77191,5,correct,542.9998263,
D,126,Other,strawberry,plant,4.75359,10,correct,551.0001052,
D,128,Other,stork,animal,3.044522,5,correct,730.9996639,
D,129,Other,melon,plant,4.127134,5,correct,573.9997725,
D,130,Other,gull,animal,4.418841,4,incorrect,606.0000084,
D,132,Other,moose,animal,2.70805,5,correct,644.0001764,
D,133,Other,sheep,animal,6.577861,5,correct,563.0002094,
D,136,Other,goose,animal,5.267858,5,correct,1049.999535,
D,138,Other,ant,animal,5.347108,3,correct,627.9998955,
D,139,Other,asparagus,plant,3.663562,9,correct,696.0002364,
D,140,Other,monkey,animal,5.783825,6,correct,515.0000512,
D,149,Other,pineapple,plant,3.988984,9,correct,873.0003878,
D,150,Other,wasp,animal,4.682131,4,correct,599.0002407,
D,152,Other,mushroom,plant,5.537334,8,correct,673.9999252,
D,155,Other,leek,plant,3.332205,4,correct,701.0000792,
D,157,Other,dolphin,animal,4.007333,7,correct,628.9998385,
D,160,Other,almond,plant,4.204693,6,correct,611.0000249,
D,164,Other,clove,plant,3.663562,5,correct,734.9996331,
D,168,Other,mustard,plant,4.442651,7,correct,636.0002777,
D,169,Other,pear,plant,4.727388,4,correct,531.9997397,
D,172,Other,chicken,animal,6.59987,7,correct,1079.000037,
D,175,Other,eagle,animal,5.117994,5,correct,778.9999643,
D,176,Other,vulture,animal,4.248495,7,correct,888.9997906,
D,177,Other,frog,animal,5.129899,4,correct,847.0002586,
D,180,Other,potato,plant,6.461468,6,correct,715.000327,
D,181,Other,magpie,animal,2.995732,6,correct,573.9997725,
D,183,Other,bee,animal,5.700444,3,correct,738.0001294,
D,184,Other,crocodile,animal,4.615121,9,NA,NA,
D,185,Other,eggplant,plant,1.791759,8,correct,827.9998722,
I,24,Other,dolphin,animal,4.007333,7,correct,489.9998084,
I,32,Other,vulture,animal,4.248495,7,correct,710.9996944,
I,34,Other,pig,animal,6.660575,3,correct,511.0002094,
I,35,Other,cherry,plant,4.997212,6,correct,662.000294,
I,36,Other,orange,plant,6.378426,6,correct,442.0000521,
I,40,Other,shark,animal,5.880533,5,correct,443.0001019,
I,41,Other,crocodile,animal,4.615121,9,correct,541.9999992,
I,42,Other,reindeer,animal,4.043051,8,correct,579.9999399,
I,43,Other,lion,animal,6.098074,4,correct,430.9999612,
I,44,Other,donkey,animal,5.541264,6,correct,447.0001812,
I,45,Other,gull,animal,4.418841,4,correct,644.9997957,
I,46,Other,blueberry,plant,2.484907,9,correct,522.9997573,
I,48,Other,snake,animal,6.120297,5,correct,1255.999564,
I,50,Other,grape,plant,5.192957,5,correct,393.0001525,
I,51,Other,carrot,plant,4.976734,6,correct,367.0000558,
I,52,Other,butterfly,animal,5.214936,9,correct,524.9998621,
I,54,Other,apple,plant,6.304449,5,correct,415.9998917,
I,56,Other,lettuce,plant,4.812184,7,correct,620.9999491,
I,57,Other,asparagus,plant,3.663562,9,correct,653.9997701,
I,58,Other,goat,animal,6.228511,4,correct,489.9998084,
I,59,Other,clove,plant,3.663562,5,correct,429.0000348,
I,63,Other,bunny,animal,3.332205,5,correct,582.9998914,
I,67,Other,swan,animal,4.962845,4,correct,535.0001354,
I,69,Other,eggplant,plant,1.791759,8,correct,555.9998364,
I,71,Other,strawberry,plant,4.75359,10,correct,561.000053,
I,73,Other,mustard,plant,4.442651,7,correct,596.0001984,
I,74,Other,magpie,animal,2.995732,6,correct,582.9998914,
I,76,Other,beaver,animal,3.951244,6,correct,592.0002161,
I,77,Other,broccoli,plant,2.833213,8,correct,941.9997413,
I,78,Other,elephant,animal,6.063785,8,correct,466.9998797,
I,79,Other,banana,plant,5.023881,6,correct,442.0000521,
I,85,Other,sheep,animal,6.577861,5,correct,476.9997658,
I,86,Other,melon,plant,4.127134,5,correct,512.000192,
I,87,Other,almond,plant,4.204693,6,correct,558.9997355,
I,88,Other,potato,plant,6.461468,6,correct,394.0000357,
I,90,Other,hedgehog,animal,3.637586,8,correct,562.0000844,
I,93,Other,leek,plant,3.332205,4,correct,608.999837,
I,96,Other,whale,animal,5.298317,5,correct,467.9998615,
I,98,Other,tomato,plant,5.545177,6,correct,423.999807,
I,102,Other,mouse,animal,5.805135,5,correct,387.9998682,
I,105,Other,ant,animal,5.347108,3,correct,560.0001211,
I,109,Other,goose,animal,5.267858,5,correct,519.0000606,
I,110,Other,paprika,plant,2.484907,7,correct,602.9998814,
I,111,Other,woodpecker,animal,2.890372,10,correct,932.0001727,
I,115,Other,pineapple,plant,3.988984,9,correct,470.9999557,
I,121,Other,bat,animal,5.918894,3,correct,473.9998475,
I,125,Other,cat,animal,7.086738,3,correct,478.0001279,
I,127,Other,bee,animal,5.700444,3,correct,403.0001765,
I,130,Other,avocado,plant,3.433987,7,correct,473.9998475,
I,132,Other,eagle,animal,5.117994,5,correct,432.0001779,
I,133,Other,olive,plant,5.587249,5,correct,407.9999288,
I,134,Other,beetroot,plant,3.555348,8,correct,498.9999522,
I,135,Other,frog,animal,5.129899,4,correct,517.0000649,
I,137,Other,mushroom,plant,5.537334,8,correct,576.9998462,
I,138,Other,gherkin,plant,2.079442,7,correct,623.0002998,
I,140,Other,spider,animal,4.844187,6,correct,481.999945,
I,146,Other,fox,animal,5.652489,3,correct,614.9998353,
I,149,Other,monkey,animal,5.783825,6,correct,717.0001143,
I,151,Other,squirrel,animal,4.70953,8,correct,496.0000363,
I,153,Other,mole,animal,4.60517,4,correct,584.00001,
I,155,Other,dog,animal,7.667626,3,correct,522.9997573,
I,156,Other,peanut,plant,4.59512,6,correct,486.0001828,
I,157,Other,owl,animal,4.859812,3,correct,450.0001878,
I,158,Other,wasp,animal,4.682131,4,correct,786.0001632,
I,159,Other,squid,animal,3.970292,5,correct,443.0001019,
I,163,Other,pear,plant,4.727388,4,correct,395.9999163,
I,164,Other,chicken,animal,6.59987,7,correct,470.9999557,
I,165,Other,radish,plant,3.044522,6,correct,429.9999103,
I,168,Other,cucumber,plant,4.454347,8,correct,524.9998621,
I,169,Other,apricot,plant,3.828641,7,correct,433.0001178,
I,170,Other,camel,animal,6.109248,5,correct,372.9998435,
I,171,Other,blackberry,plant,4.060443,10,correct,601.0000393,
I,173,Other,lemon,plant,5.631212,5,correct,401.9999644,
I,174,Other,tortoise,animal,4.624973,8,correct,601.9997319,
I,176,Other,kiwi,plant,3.044522,4,correct,382.0001495,
I,178,Other,horse,animal,7.77191,5,correct,406.9999245,
I,182,Other,stork,animal,3.044522,5,correct,767.0001524,
I,183,Other,walnut,plant,4.49981,6,correct,515.0000512,
I,184,Other,moose,animal,2.70805,5,correct,486.9999401,
J,23,Other,beaver,animal,3.951244,6,correct,824.0003874,
J,26,Other,hedgehog,animal,3.637586,8,incorrect,434.9999865,
J,27,Other,gull,animal,4.418841,4,correct,677.9998048,
J,30,Other,carrot,plant,4.976734,6,correct,568.999753,
J,32,Other,clove,plant,3.663562,5,correct,568.999753,
J,36,Other,mouse,animal,5.805135,5,correct,663.0000065,
J,38,Other,bunny,animal,3.332205,5,correct,941.9997413,
J,42,Other,pig,animal,6.660575,3,correct,524.0001654,
J,43,Other,ant,animal,5.347108,3,correct,516.000121,
J,44,Other,eggplant,plant,1.791759,8,correct,545.0001119,
J,47,Other,gherkin,plant,2.079442,7,incorrect,489.9998084,
J,49,Other,wasp,animal,4.682131,4,correct,673.9999252,
J,50,Other,fox,animal,5.652489,3,correct,467.9998615,
J,52,Other,lemon,plant,5.631212,5,correct,483.0001673,
J,56,Other,owl,animal,4.859812,3,correct,576.0001954,
J,57,Other,dog,animal,7.667626,3,correct,456.9998214,
J,61,Other,shark,animal,5.880533,5,correct,573.9997725,
J,65,Other,apricot,plant,3.828641,7,correct,578.0000759,
J,67,Other,whale,animal,5.298317,5,correct,483.0001673,
J,69,Other,spider,animal,4.844187,6,correct,558.000021,
J,70,Other,pear,plant,4.727388,4,correct,598.0001471,
J,72,Other,mushroom,plant,5.537334,8,correct,451.9999187,
J,75,Other,squirrel,animal,4.70953,8,correct,554.0001735,
J,77,Other,pineapple,plant,3.988984,9,correct,536.9999492,
J,79,Other,chicken,animal,6.59987,7,NA,NA,
J,81,Other,goat,animal,6.228511,4,correct,525.9998881,
J,83,Other,crocodile,animal,4.615121,9,incorrect,451.9999187,
J,84,Other,horse,animal,7.77191,5,correct,548.9997576,
J,89,Other,tomato,plant,5.545177,6,correct,473.9998475,
J,93,Other,broccoli,plant,2.833213,8,correct,538.0002366,
J,97,Other,mole,animal,4.60517,4,correct,725.0002502,
J,98,Other,bat,animal,5.918894,3,correct,490.9999373,
J,99,Other,donkey,animal,5.541264,6,incorrect,444.9998744,
J,100,Other,mustard,plant,4.442651,7,correct,472.0000068,
J,103,Other,squid,animal,3.970292,5,correct,560.0001211,
J,108,Other,frog,animal,5.129899,4,correct,444.9998744,
J,109,Other,dolphin,animal,4.007333,7,incorrect,444.9998744,
J,112,Other,reindeer,animal,4.043051,8,incorrect,464.0002078,
J,113,Other,lion,animal,6.098074,4,correct,420.0001213,
J,115,Other,potato,plant,6.461468,6,correct,466.9998797,
J,117,Other,eagle,animal,5.117994,5,correct,539.0002313,
J,118,Other,blackberry,plant,4.060443,10,correct,535.0001354,
J,120,Other,camel,animal,6.109248,5,correct,569.9997943,
J,121,Other,radish,plant,3.044522,6,correct,492.0001395,
J,122,Other,beetroot,plant,3.555348,8,correct,527.0002379,
J,123,Other,apple,plant,6.304449,5,correct,446.0000214,
J,124,Other,grape,plant,5.192957,5,correct,423.999807,
J,128,Other,cucumber,plant,4.454347,8,correct,558.000021,
J,130,Other,cherry,plant,4.997212,6,correct,456.0000869,
J,131,Other,butterfly,animal,5.214936,9,correct,596.9999323,
J,133,Other,vulture,animal,4.248495,7,correct,565.0001519,
J,134,Other,walnut,plant,4.49981,6,correct,608.999837,
J,137,Other,magpie,animal,2.995732,6,correct,710.9996944,
J,138,Other,strawberry,plant,4.75359,10,correct,539.0002313,
J,139,Other,banana,plant,5.023881,6,correct,438.0000393,
J,141,Other,elephant,animal,6.063785,8,correct,554.9999369,
J,144,Other,stork,animal,3.044522,5,correct,814.9999077,
J,147,Other,olive,plant,5.587249,5,correct,495.0001175,
J,152,Other,goose,animal,5.267858,5,incorrect,440.0001202,
J,154,Other,swan,animal,4.962845,4,correct,534.000086,
J,156,Other,almond,plant,4.204693,6,correct,601.9997319,
J,159,Other,asparagus,plant,3.663562,9,incorrect,394.0000357,
J,160,Other,leek,plant,3.332205,4,incorrect,475.0000931,
J,162,Other,orange,plant,6.378426,6,correct,447.0001812,
J,163,Other,woodpecker,animal,2.890372,10,incorrect,369.0001313,
J,166,Other,tortoise,animal,4.624973,8,correct,563.9998582,
J,168,Other,lettuce,plant,4.812184,7,correct,524.9998621,
J,169,Other,cat,animal,7.086738,3,correct,458.9999036,
J,170,Other,sheep,animal,6.577861,5,correct,451.9999187,
J,172,Other,avocado,plant,3.433987,7,correct,554.0001735,
J,173,Other,kiwi,plant,3.044522,4,correct,460.9999802,
J,175,Other,melon,plant,4.127134,5,correct,497.9999616,
J,176,Other,snake,animal,6.120297,5,correct,475.0000931,
J,177,Other,moose,animal,2.70805,5,correct,458.9999036,
J,178,Other,monkey,animal,5.783825,6,correct,497.9999616,
J,179,Other,blueberry,plant,2.484907,9,incorrect,435.9998939,
J,180,Other,paprika,plant,2.484907,7,incorrect,554.0001735,
J,181,Other,peanut,plant,4.59512,6,correct,508.9999916,
J,182,Other,bee,animal,5.700444,3,correct,438.9998187,
K,23,English,owl,animal,4.859812,3,correct,407.9999288,
K,24,English,chicken,animal,6.59987,7,correct,434.9999865,
K,30,English,vulture,animal,4.248495,7,correct,459.9997748,
K,32,English,orange,plant,6.378426,6,correct,450.0001878,
K,33,English,blackberry,plant,4.060443,10,correct,551.0001052,
K,34,English,lion,animal,6.098074,4,correct,403.0001765,
K,35,English,sheep,animal,6.577861,5,correct,466.0001705,
K,36,English,wasp,animal,4.682131,4,correct,446.0000214,
K,41,English,avocado,plant,3.433987,7,correct,447.9998959,
K,45,English,radish,plant,3.044522,6,correct,433.0001178,
K,48,English,stork,animal,3.044522,5,correct,500.9999494,
K,50,English,dolphin,animal,4.007333,7,correct,404.0000493,
K,51,English,fox,animal,5.652489,3,incorrect,434.9999865,
K,53,English,grape,plant,5.192957,5,correct,495.0001175,
K,54,English,spider,animal,4.844187,6,correct,433.0001178,
K,58,English,lettuce,plant,4.812184,7,correct,507.9997726,
K,63,English,cucumber,plant,4.454347,8,correct,573.9997725,
K,64,English,bat,animal,5.918894,3,correct,542.9998263,
K,74,English,goose,animal,5.267858,5,NA,NA,
K,76,English,leek,plant,3.332205,4,correct,554.9999369,
K,78,English,clove,plant,3.663562,5,correct,464.9998114,
K,79,English,elephant,animal,6.063785,8,correct,458.9999036,
K,80,English,woodpecker,animal,2.890372,10,correct,549.999847,
K,82,English,pear,plant,4.727388,4,NA,NA,
K,83,English,lemon,plant,5.631212,5,incorrect,347.999833,
K,84,English,squirrel,animal,4.70953,8,correct,460.9999802,
K,86,English,gherkin,plant,2.079442,7,correct,488.9997606,
K,87,English,olive,plant,5.587249,5,correct,424.9999282,
K,92,English,monkey,animal,5.783825,6,correct,470.0001435,
K,95,English,cat,animal,7.086738,3,correct,450.9998469,
K,98,English,goat,animal,6.228511,4,correct,472.0000068,
K,99,English,potato,plant,6.461468,6,incorrect,363.0000602,
K,100,English,camel,animal,6.109248,5,correct,470.0001435,
K,101,English,apricot,plant,3.828641,7,correct,454.9998094,
K,106,English,swan,animal,4.962845,4,correct,478.0001279,
K,108,English,bunny,animal,3.332205,5,correct,419.0000336,
K,111,English,peanut,plant,4.59512,6,correct,558.9997355,
K,112,English,pineapple,plant,3.988984,9,correct,496.999987,
K,113,English,magpie,animal,2.995732,6,incorrect,504.9997832,
K,114,English,walnut,plant,4.49981,6,incorrect,617.9997173,
K,117,English,paprika,plant,2.484907,7,correct,573.9997725,
K,119,English,crocodile,animal,4.615121,9,correct,484.0000451,
K,120,English,apple,plant,6.304449,5,correct,486.9999401,
K,121,English,carrot,plant,4.976734,6,correct,821.9996753,
K,123,English,moose,animal,2.70805,5,correct,490.9999373,
K,124,English,mouse,animal,5.805135,5,incorrect,489.9998084,
K,127,English,reindeer,animal,4.043051,8,correct,535.9999137,
K,128,English,eagle,animal,5.117994,5,correct,462.999975,
K,129,English,mushroom,plant,5.537334,8,correct,486.9999401,
K,130,English,beaver,animal,3.951244,6,correct,720.999901,
K,131,English,asparagus,plant,3.663562,9,correct,545.0001119,
K,134,English,donkey,animal,5.541264,6,correct,435.9998939,
K,136,English,frog,animal,5.129899,4,correct,561.000053,
K,137,English,horse,animal,7.77191,5,correct,436.9999147,
K,140,English,shark,animal,5.880533,5,correct,476.0000694,
K,142,English,strawberry,plant,4.75359,10,correct,637.0002194,
K,144,English,cherry,plant,4.997212,6,correct,487.9998019,
K,147,English,bee,animal,5.700444,3,correct,574.9999765,
K,150,English,squid,animal,3.970292,5,correct,576.9998462,
K,151,English,beetroot,plant,3.555348,8,correct,685.0001108,
K,152,English,melon,plant,4.127134,5,correct,558.000021,
K,153,English,almond,plant,4.204693,6,correct,551.9999745,
K,154,English,kiwi,plant,3.044522,4,correct,513.0000794,
K,155,English,tomato,plant,5.545177,6,correct,398.9998337,
K,156,English,pig,animal,6.660575,3,correct,416.9999075,
K,157,English,mole,animal,4.60517,4,correct,384.9998713,
K,158,English,whale,animal,5.298317,5,correct,419.0000336,
K,159,English,broccoli,plant,2.833213,8,correct,470.0001435,
K,160,English,snake,animal,6.120297,5,correct,444.0001943,
K,162,English,banana,plant,5.023881,6,correct,435.9998939,
K,164,English,eggplant,plant,1.791759,8,correct,435.9998939,
K,165,English,butterfly,animal,5.214936,9,correct,409.9999345,
K,167,English,blueberry,plant,2.484907,9,correct,481.999945,
K,168,English,hedgehog,animal,3.637586,8,correct,661.0001059,
K,173,English,gull,animal,4.418841,4,correct,539.0002313,
K,178,English,dog,animal,7.667626,3,correct,656.0001385,
K,182,English,mustard,plant,4.442651,7,correct,456.0000869,
K,183,English,ant,animal,5.347108,3,correct,442.0000521,
K,185,English,tortoise,animal,4.624973,8,correct,601.0000393,
M1,25,English,pear,plant,4.727388,4,correct,429.0000348,
M1,27,English,beaver,animal,3.951244,6,correct,449.0000504,
M1,31,English,almond,plant,4.204693,6,correct,556.9998664,
M1,32,English,squid,animal,3.970292,5,correct,576.9998462,
M1,33,English,eagle,animal,5.117994,5,correct,454.9998094,
M1,34,English,camel,animal,6.109248,5,NA,NA,
M1,35,English,magpie,animal,2.995732,6,correct,429.9999103,
M1,37,English,reindeer,animal,4.043051,8,correct,527.0002379,
M1,39,English,tomato,plant,5.545177,6,correct,462.999975,
M1,40,English,shark,animal,5.880533,5,correct,492.9999142,
M1,42,English,olive,plant,5.587249,5,correct,499.9999508,
M1,45,English,gull,animal,4.418841,4,correct,596.9999323,
M1,47,English,monkey,animal,5.783825,6,correct,444.0001943,
M1,48,English,mouse,animal,5.805135,5,correct,475.0000931,
M1,55,English,hedgehog,animal,3.637586,8,correct,538.0002366,
M1,59,English,horse,animal,7.77191,5,correct,469.0001086,
M1,60,English,snake,animal,6.120297,5,correct,457.9999157,
M1,62,English,lion,animal,6.098074,4,correct,447.0001812,
M1,63,English,cherry,plant,4.997212,6,correct,467.9998615,
M1,65,English,swan,animal,4.962845,4,correct,430.9999612,
M1,66,English,goose,animal,5.267858,5,correct,469.0001086,
M1,68,English,mole,animal,4.60517,4,correct,420.0001213,
M1,70,English,frog,animal,5.129899,4,correct,434.9999865,
M1,71,English,apple,plant,6.304449,5,correct,451.9999187,
M1,72,English,crocodile,animal,4.615121,9,incorrect,466.0001705,
M1,73,English,elephant,animal,6.063785,8,correct,539.9999246,
M1,75,English,bat,animal,5.918894,3,correct,490.9999373,
M1,79,English,chicken,animal,6.59987,7,correct,576.0001954,
M1,83,English,mushroom,plant,5.537334,8,correct,472.0000068,
M1,85,English,gherkin,plant,2.079442,7,incorrect,407.9999288,
M1,86,English,tortoise,animal,4.624973,8,correct,596.0001984,
M1,88,English,lettuce,plant,4.812184,7,correct,479.9999501,
M1,90,English,donkey,animal,5.541264,6,correct,462.999975,
M1,93,English,kiwi,plant,3.044522,4,correct,417.9998192,
M1,96,English,carrot,plant,4.976734,6,correct,430.9999612,
M1,101,English,stork,animal,3.044522,5,correct,570.9998803,
M1,107,English,potato,plant,6.461468,6,correct,457.9999157,
M1,109,English,spider,animal,4.844187,6,correct,515.0000512,
M1,110,English,orange,plant,6.378426,6,correct,467.9998615,
M1,112,English,leek,plant,3.332205,4,correct,524.9998621,
M1,115,English,pineapple,plant,3.988984,9,correct,456.0000869,
M1,116,English,apricot,plant,3.828641,7,correct,419.0000336,
M1,119,English,mustard,plant,4.442651,7,correct,484.0000451,
M1,120,English,walnut,plant,4.49981,6,correct,549.999847,
M1,121,English,blueberry,plant,2.484907,9,correct,515.0000512,
M1,125,English,cucumber,plant,4.454347,8,correct,453.9999101,
M1,126,English,blackberry,plant,4.060443,10,correct,480.9998701,
M1,127,English,asparagus,plant,3.663562,9,correct,485.0000529,
M1,129,English,broccoli,plant,2.833213,8,correct,462.0000503,
M1,130,English,cat,animal,7.086738,3,correct,430.9999612,
M1,133,English,radish,plant,3.044522,6,correct,425.9998525,
M1,135,English,banana,plant,5.023881,6,correct,1158.000396,
M1,136,English,butterfly,animal,5.214936,9,correct,515.0000512,
M1,137,English,beetroot,plant,3.555348,8,NA,NA,
M1,138,English,squirrel,animal,4.70953,8,correct,451.9999187,
M1,140,English,goat,animal,6.228511,4,correct,464.0002078,
M1,143,English,lemon,plant,5.631212,5,correct,464.0002078,
M1,144,English,woodpecker,animal,2.890372,10,correct,534.000086,
M1,145,English,owl,animal,4.859812,3,correct,441.0000549,
M1,146,English,sheep,animal,6.577861,5,correct,435.9998939,
M1,147,English,fox,animal,5.652489,3,correct,416.9999075,
M1,148,English,peanut,plant,4.59512,6,correct,379.999904,
M1,149,English,vulture,animal,4.248495,7,NA,NA,
M1,151,English,bunny,animal,3.332205,5,correct,426.9999944,
M1,156,English,clove,plant,3.663562,5,correct,549.999847,
M1,158,English,eggplant,plant,1.791759,8,incorrect,438.9998187,
M1,165,English,pig,animal,6.660575,3,correct,479.9999501,
M1,168,English,moose,animal,2.70805,5,correct,472.0000068,
M1,169,English,whale,animal,5.298317,5,correct,480.9998701,
M1,170,English,bee,animal,5.700444,3,correct,433.0001178,
M1,171,English,ant,animal,5.347108,3,correct,426.9999944,
M1,173,English,paprika,plant,2.484907,7,correct,540.9998491,
M1,174,English,avocado,plant,3.433987,7,correct,456.0000869,
M1,175,English,dog,animal,7.667626,3,correct,403.0001765,
M1,178,English,grape,plant,5.192957,5,correct,459.9997748,
M1,179,English,strawberry,plant,4.75359,10,correct,470.9999557,
M1,180,English,dolphin,animal,4.007333,7,correct,473.9998475,
M1,183,English,melon,plant,4.127134,5,correct,546.0000132,
M1,184,English,wasp,animal,4.682131,4,correct,561.000053,
M2,23,Other,paprika,plant,2.484907,7,incorrect,941.9997413,
M2,25,Other,mustard,plant,4.442651,7,correct,717.0001143,
M2,26,Other,potato,plant,6.461468,6,correct,668.9999598,
M2,29,Other,grape,plant,5.192957,5,correct,628.9998385,
M2,30,Other,donkey,animal,5.541264,6,correct,628.9998385,
M2,31,Other,kiwi,plant,3.044522,4,correct,581.0001413,
M2,38,Other,crocodile,animal,4.615121,9,correct,923.9999338,
M2,39,Other,eggplant,plant,1.791759,8,correct,835.0002297,
M2,44,Other,clove,plant,3.663562,5,NA,NA,
M2,45,Other,bat,animal,5.918894,3,correct,733.999979,
M2,47,Other,chicken,animal,6.59987,7,correct,594.9997587,
M2,48,Other,cucumber,plant,4.454347,8,correct,649.0001839,
M2,49,Other,owl,animal,4.859812,3,correct,619.9997036,
M2,50,Other,lettuce,plant,4.812184,7,correct,534.000086,
M2,51,Other,sheep,animal,6.577861,5,correct,578.9997235,
M2,54,Other,radish,plant,3.044522,6,correct,881.9999506,
M2,55,Other,wasp,animal,4.682131,4,correct,1118.000387,
M2,57,Other,avocado,plant,3.433987,7,correct,810.9999561,
M2,58,Other,frog,animal,5.129899,4,correct,535.9999137,
M2,59,Other,moose,animal,2.70805,5,correct,738.0001294,
M2,62,Other,tomato,plant,5.545177,6,correct,625.9997677,
M2,64,Other,reindeer,animal,4.043051,8,correct,1099.00005,
M2,66,Other,elephant,animal,6.063785,8,correct,869.9998159,
M2,70,Other,fox,animal,5.652489,3,correct,635.0000007,
M2,71,Other,spider,animal,4.844187,6,correct,649.9997641,
M2,73,Other,mouse,animal,5.805135,5,correct,535.0001354,
M2,75,Other,broccoli,plant,2.833213,8,correct,691.0001218,
M2,76,Other,pig,animal,6.660575,3,correct,513.9998636,
M2,77,Other,carrot,plant,4.976734,6,correct,534.000086,
M2,78,Other,blueberry,plant,2.484907,9,correct,672.9997781,
M2,80,Other,olive,plant,5.587249,5,correct,549.999847,
M2,84,Other,walnut,plant,4.49981,6,correct,791.9996897,
M2,88,Other,dog,animal,7.667626,3,correct,590.0002732,
M2,89,Other,pear,plant,4.727388,4,correct,551.9999745,
M2,90,Other,eagle,animal,5.117994,5,correct,522.0002151,
M2,94,Other,tortoise,animal,4.624973,8,incorrect,821.9996753,
M2,95,Other,bee,animal,5.700444,3,correct,565.0001519,
M2,103,Other,lemon,plant,5.631212,5,correct,694.0000274,
M2,105,Other,leek,plant,3.332205,4,correct,1709.000542,
M2,106,Other,hedgehog,animal,3.637586,8,correct,1641.999524,
M2,107,Other,asparagus,plant,3.663562,9,correct,797.000256,
M2,111,Other,squirrel,animal,4.70953,8,correct,1502.000252,
M2,113,Other,whale,animal,5.298317,5,correct,772.0003474,
M2,114,Other,almond,plant,4.204693,6,correct,958.0002127,
M2,115,Other,beetroot,plant,3.555348,8,correct,871.0000202,
M2,117,Other,ant,animal,5.347108,3,correct,529.9999965,
M2,119,Other,swan,animal,4.962845,4,correct,646.9998095,
M2,120,Other,orange,plant,6.378426,6,NA,NA,
M2,122,Other,snake,animal,6.120297,5,correct,543.9998657,
M2,123,Other,shark,animal,5.880533,5,correct,628.9998385,
M2,126,Other,camel,animal,6.109248,5,correct,542.9998263,
M2,127,Other,cherry,plant,4.997212,6,correct,501.9999399,
M2,128,Other,monkey,animal,5.783825,6,correct,522.0002151,
M2,129,Other,goose,animal,5.267858,5,correct,443.0001019,
M2,130,Other,melon,plant,4.127134,5,correct,566.9998278,
M2,131,Other,stork,animal,3.044522,5,correct,701.9997164,
M2,132,Other,gull,animal,4.418841,4,incorrect,956.0000831,
M2,136,Other,gherkin,plant,2.079442,7,incorrect,701.9997164,
M2,140,Other,horse,animal,7.77191,5,correct,614.9998353,
M2,154,Other,banana,plant,5.023881,6,correct,492.9999142,
M2,155,Other,butterfly,animal,5.214936,9,correct,590.0002732,
M2,157,Other,bunny,animal,3.332205,5,correct,795.9998521,
M2,158,Other,apple,plant,6.304449,5,correct,596.0001984,
M2,159,Other,strawberry,plant,4.75359,10,correct,630.0001138,
M2,160,Other,blackberry,plant,4.060443,10,correct,611.0000249,
M2,161,Other,mushroom,plant,5.537334,8,correct,556.9998664,
M2,162,Other,goat,animal,6.228511,4,correct,678.9999134,
M2,164,Other,squid,animal,3.970292,5,correct,600.0002069,
M2,166,Other,beaver,animal,3.951244,6,correct,594.9997587,
M2,168,Other,cat,animal,7.086738,3,correct,532.9997739,
M2,170,Other,mole,animal,4.60517,4,correct,540.9998491,
M2,172,Other,apricot,plant,3.828641,7,correct,707.9999337,
M2,173,Other,dolphin,animal,4.007333,7,correct,710.0000213,
M2,174,Other,magpie,animal,2.995732,6,correct,1227.999867,
M2,179,Other,vulture,animal,4.248495,7,correct,1180.000333,
M2,181,Other,peanut,plant,4.59512,6,correct,620.9999491,
M2,182,Other,woodpecker,animal,2.890372,10,correct,936.9997355,
M2,183,Other,pineapple,plant,3.988984,9,correct,536.9999492,
M2,185,Other,lion,animal,6.098074,4,correct,634.0000289,
P,23,Other,moose,animal,2.70805,5,incorrect,1102.999979,
P,25,Other,pineapple,plant,3.988984,9,correct,603.9998804,
P,28,Other,fox,animal,5.652489,3,correct,643.0001773,
P,29,Other,gull,animal,4.418841,4,correct,627.9998955,
P,31,Other,whale,animal,5.298317,5,correct,601.0000393,
P,32,Other,snake,animal,6.120297,5,correct,495.0001175,
P,33,Other,crocodile,animal,4.615121,9,correct,563.0002094,
P,40,Other,squirrel,animal,4.70953,8,correct,778.9999643,
P,43,Other,mustard,plant,4.442651,7,correct,590.0002732,
P,47,Other,eagle,animal,5.117994,5,correct,563.9998582,
P,48,Other,elephant,animal,6.063785,8,correct,546.0000132,
P,49,Other,apple,plant,6.304449,5,correct,470.0001435,
P,50,Other,cat,animal,7.086738,3,correct,522.9997573,
P,51,Other,almond,plant,4.204693,6,correct,517.9998745,
P,54,Other,lion,animal,6.098074,4,correct,532.9997739,
P,58,Other,cherry,plant,4.997212,6,correct,686.9997992,
P,59,Other,goat,animal,6.228511,4,correct,504.9997832,
P,60,Other,hedgehog,animal,3.637586,8,correct,894.000201,
P,61,Other,sheep,animal,6.577861,5,correct,501.9999399,
P,65,Other,beetroot,plant,3.555348,8,correct,643.0001773,
P,66,Other,kiwi,plant,3.044522,4,correct,560.0001211,
P,68,Other,vulture,animal,4.248495,7,correct,861.0004267,
P,71,Other,pig,animal,6.660575,3,correct,594.9997587,
P,73,Other,clove,plant,3.663562,5,correct,644.0001764,
P,74,Other,avocado,plant,3.433987,7,correct,608.999837,
P,75,Other,blackberry,plant,4.060443,10,correct,570.9998803,
P,79,Other,horse,animal,7.77191,5,correct,584.00001,
P,82,Other,pear,plant,4.727388,4,correct,752.9998285,
P,83,Other,owl,animal,4.859812,3,correct,623.9997701,
P,84,Other,mole,animal,4.60517,4,correct,494.0002385,
P,85,Other,goose,animal,5.267858,5,correct,547.0001081,
P,87,Other,donkey,animal,5.541264,6,correct,616.0000225,
P,88,Other,bunny,animal,3.332205,5,correct,864.0001998,
P,89,Other,gherkin,plant,2.079442,7,correct,960.999607,
P,90,Other,spider,animal,4.844187,6,correct,660.0001089,
P,93,Other,tortoise,animal,4.624973,8,correct,699.9997655,
P,97,Other,shark,animal,5.880533,5,correct,628.9998385,
P,98,Other,melon,plant,4.127134,5,correct,535.0001354,
P,99,Other,broccoli,plant,2.833213,8,correct,631.0000867,
P,101,Other,carrot,plant,4.976734,6,correct,573.9997725,
P,102,Other,leek,plant,3.332205,4,correct,767.0001524,
P,105,Other,magpie,animal,2.995732,6,correct,1194.999445,
P,108,Other,mushroom,plant,5.537334,8,correct,625.0002189,
P,109,Other,orange,plant,6.378426,6,correct,522.9997573,
P,110,Other,swan,animal,4.962845,4,correct,558.9997355,
P,111,Other,apricot,plant,3.828641,7,correct,528.9997715,
P,112,Other,paprika,plant,2.484907,7,correct,558.9997355,
P,114,Other,reindeer,animal,4.043051,8,correct,875.0000994,
P,115,Other,ant,animal,5.347108,3,correct,532.9997739,
P,117,Other,strawberry,plant,4.75359,10,correct,531.9997397,
P,121,Other,dog,animal,7.667626,3,correct,554.0001735,
P,123,Other,frog,animal,5.129899,4,correct,536.9999492,
P,128,Other,olive,plant,5.587249,5,correct,673.9999252,
P,129,Other,wasp,animal,4.682131,4,correct,578.0000759,
P,131,Other,butterfly,animal,5.214936,9,correct,663.9999007,
P,132,Other,lettuce,plant,4.812184,7,correct,542.9998263,
P,134,Other,potato,plant,6.461468,6,correct,479.0001928,
P,135,Other,peanut,plant,4.59512,6,correct,481.999945,
P,137,Other,banana,plant,5.023881,6,correct,541.9999992,
P,138,Other,bee,animal,5.700444,3,correct,618.9998312,
P,141,Other,blueberry,plant,2.484907,9,correct,707.9999337,
P,142,Other,tomato,plant,5.545177,6,correct,560.0001211,
P,146,Other,walnut,plant,4.49981,6,correct,920.0003036,
P,147,Other,lemon,plant,5.631212,5,correct,581.0001413,
P,149,Other,stork,animal,3.044522,5,correct,1029.999916,
P,153,Other,mouse,animal,5.805135,5,correct,670.0001927,
P,156,Other,asparagus,plant,3.663562,9,correct,741.0002777,
P,160,Other,beaver,animal,3.951244,6,correct,653.9997701,
P,161,Other,chicken,animal,6.59987,7,correct,565.9999557,
P,162,Other,bat,animal,5.918894,3,correct,554.9999369,
P,164,Other,eggplant,plant,1.791759,8,correct,581.0001413,
P,165,Other,squid,animal,3.970292,5,correct,639.9998871,
P,167,Other,monkey,animal,5.783825,6,correct,554.0001735,
P,168,Other,dolphin,animal,4.007333,7,correct,634.0000289,
P,170,Other,woodpecker,animal,2.890372,10,correct,686.9997992,
P,171,Other,cucumber,plant,4.454347,8,correct,670.9999081,
P,173,Other,radish,plant,3.044522,6,correct,513.0000794,
P,175,Other,grape,plant,5.192957,5,correct,470.9999557,
P,178,Other,camel,animal,6.109248,5,correct,496.999987,
R1,25,English,bee,animal,5.700444,3,correct,489.9998084,
R1,30,English,ant,animal,5.347108,3,correct,483.0001673,
R1,31,English,paprika,plant,2.484907,7,correct,606.0000084,
R1,32,English,monkey,animal,5.783825,6,correct,531.9997397,
R1,33,English,goose,animal,5.267858,5,correct,475.0000931,
R1,40,English,avocado,plant,3.433987,7,correct,565.0001519,
R1,43,English,camel,animal,6.109248,5,correct,522.0002151,
R1,44,English,bunny,animal,3.332205,5,correct,492.0001395,
R1,45,English,spider,animal,4.844187,6,correct,460.9999802,
R1,46,English,fox,animal,5.652489,3,correct,483.0001673,
R1,47,English,blackberry,plant,4.060443,10,correct,473.9998475,
R1,48,English,almond,plant,4.204693,6,correct,395.9999163,
R1,49,English,crocodile,animal,4.615121,9,correct,481.999945,
R1,51,English,owl,animal,4.859812,3,correct,510.0001399,
R1,55,English,swan,animal,4.962845,4,correct,596.0001984,
R1,56,English,carrot,plant,4.976734,6,correct,530.9999887,
R1,58,English,goat,animal,6.228511,4,incorrect,492.0001395,
R1,63,English,mustard,plant,4.442651,7,correct,494.0002385,
R1,68,English,banana,plant,5.023881,6,correct,510.0001399,
R1,70,English,apricot,plant,3.828641,7,correct,531.9997397,
R1,71,English,hedgehog,animal,3.637586,8,incorrect,452.9999432,
R1,72,English,clove,plant,3.663562,5,correct,551.9999745,
R1,76,English,asparagus,plant,3.663562,9,correct,535.0001354,
R1,77,English,beaver,animal,3.951244,6,correct,772.9999624,
R1,80,English,reindeer,animal,4.043051,8,correct,563.0002094,
R1,84,English,lion,animal,6.098074,4,correct,596.9999323,
R1,85,English,chicken,animal,6.59987,7,correct,466.0001705,
R1,88,English,gherkin,plant,2.079442,7,correct,515.0000512,
R1,89,English,pineapple,plant,3.988984,9,correct,498.9999522,
R1,93,English,magpie,animal,2.995732,6,correct,675.0002087,
R1,97,English,gull,animal,4.418841,4,incorrect,666.9999694,
R1,100,English,cucumber,plant,4.454347,8,correct,539.0002313,
R1,101,English,squirrel,animal,4.70953,8,correct,607.0001268,
R1,102,English,cherry,plant,4.997212,6,correct,540.9998491,
R1,106,English,leek,plant,3.332205,4,correct,534.000086,
R1,109,English,apple,plant,6.304449,5,correct,532.9997739,
R1,111,English,lettuce,plant,4.812184,7,correct,459.9997748,
R1,116,English,beetroot,plant,3.555348,8,correct,1678.00019,
R1,118,English,potato,plant,6.461468,6,correct,630.0001138,
R1,123,English,vulture,animal,4.248495,7,correct,759.9996707,
R1,125,English,pear,plant,4.727388,4,correct,1027.999541,
R1,126,English,donkey,animal,5.541264,6,correct,600.0002069,
R1,127,English,mole,animal,4.60517,4,correct,811.9997238,
R1,129,English,wasp,animal,4.682131,4,correct,543.9998657,
R1,130,English,walnut,plant,4.49981,6,correct,552.9999992,
R1,132,English,grape,plant,5.192957,5,correct,529.9999965,
R1,133,English,tomato,plant,5.545177,6,correct,492.9999142,
R1,135,English,butterfly,animal,5.214936,9,correct,556.9998664,
R1,136,English,radish,plant,3.044522,6,correct,524.9998621,
R1,137,English,melon,plant,4.127134,5,correct,508.9999916,
R1,139,English,dog,animal,7.667626,3,correct,582.9998914,
R1,144,English,broccoli,plant,2.833213,8,correct,479.0001928,
R1,145,English,bat,animal,5.918894,3,correct,707.9999337,
R1,146,English,pig,animal,6.660575,3,correct,563.9998582,
R1,148,English,mouse,animal,5.805135,5,correct,506.9999982,
R1,149,English,eagle,animal,5.117994,5,correct,466.0001705,
R1,150,English,shark,animal,5.880533,5,correct,506.0001673,
R1,151,English,tortoise,animal,4.624973,8,correct,525.9998881,
R1,152,English,snake,animal,6.120297,5,correct,578.9997235,
R1,154,English,stork,animal,3.044522,5,incorrect,675.0002087,
R1,155,English,squid,animal,3.970292,5,correct,542.9998263,
R1,157,English,horse,animal,7.77191,5,correct,534.000086,
R1,158,English,cat,animal,7.086738,3,correct,682.0002334,
R1,159,English,peanut,plant,4.59512,6,correct,479.9999501,
R1,160,English,olive,plant,5.587249,5,correct,539.9999246,
R1,161,English,strawberry,plant,4.75359,10,correct,552.9999992,
R1,162,English,whale,animal,5.298317,5,correct,538.0002366,
R1,165,English,sheep,animal,6.577861,5,correct,476.0000694,
R1,167,English,lemon,plant,5.631212,5,correct,545.0001119,
R1,168,English,moose,animal,2.70805,5,correct,442.0000521,
R1,169,English,woodpecker,animal,2.890372,10,incorrect,462.0000503,
R1,171,English,kiwi,plant,3.044522,4,correct,530.9999887,
R1,174,English,eggplant,plant,1.791759,8,correct,546.0000132,
R1,175,English,orange,plant,6.378426,6,correct,659.0003068,
R1,177,English,mushroom,plant,5.537334,8,correct,498.9999522,
R1,179,English,elephant,animal,6.063785,8,correct,492.9999142,
R1,180,English,blueberry,plant,2.484907,9,correct,479.0001928,
R1,181,English,frog,animal,5.129899,4,correct,414.0000108,
R1,183,English,dolphin,animal,4.007333,7,correct,524.9998621,
R2,24,English,whale,animal,5.298317,5,correct,608.0000718,
R2,25,English,banana,plant,5.023881,6,NA,NA,
R2,26,English,woodpecker,animal,2.890372,10,correct,671.9997712,
R2,27,English,shark,animal,5.880533,5,correct,572.0000049,
R2,29,English,hedgehog,animal,3.637586,8,correct,673.9999252,
R2,30,English,snake,animal,6.120297,5,correct,601.0000393,
R2,31,English,strawberry,plant,4.75359,10,correct,608.0000718,
R2,32,English,leek,plant,3.332205,4,correct,578.0000759,
R2,34,English,lemon,plant,5.631212,5,correct,546.0000132,
R2,36,English,camel,animal,6.109248,5,correct,787.9999292,
R2,37,English,dolphin,animal,4.007333,7,correct,631.0000867,
R2,41,English,crocodile,animal,4.615121,9,correct,749.0000123,
R2,42,English,cat,animal,7.086738,3,correct,573.9997725,
R2,43,English,reindeer,animal,4.043051,8,correct,693.0000006,
R2,44,English,donkey,animal,5.541264,6,correct,538.0002366,
R2,46,English,mushroom,plant,5.537334,8,correct,596.0001984,
R2,47,English,elephant,animal,6.063785,8,correct,604.9997229,
R2,48,English,chicken,animal,6.59987,7,correct,576.0001954,
R2,51,English,apricot,plant,3.828641,7,correct,551.0001052,
R2,54,English,bat,animal,5.918894,3,correct,552.9999992,
R2,57,English,beetroot,plant,3.555348,8,correct,598.0001471,
R2,59,English,monkey,animal,5.783825,6,correct,699.9997655,
R2,62,English,swan,animal,4.962845,4,correct,721.9998997,
R2,63,English,orange,plant,6.378426,6,correct,767.0001524,
R2,66,English,blueberry,plant,2.484907,9,correct,1020.000096,
R2,68,English,pig,animal,6.660575,3,correct,604.9997229,
R2,70,English,melon,plant,4.127134,5,correct,786.0001632,
R2,72,English,horse,animal,7.77191,5,correct,770.0003736,
R2,73,English,kiwi,plant,3.044522,4,correct,729.0001954,
R2,74,English,tomato,plant,5.545177,6,correct,666.0002194,
R2,75,English,carrot,plant,4.976734,6,correct,690.0002777,
R2,76,English,sheep,animal,6.577861,5,correct,623.0002998,
R2,77,English,wasp,animal,4.682131,4,correct,666.0002194,
R2,78,English,mustard,plant,4.442651,7,correct,570.9998803,
R2,87,English,moose,animal,2.70805,5,correct,639.9998871,
R2,94,English,spider,animal,4.844187,6,correct,710.0000213,
R2,97,English,radish,plant,3.044522,6,correct,611.9998271,
R2,98,English,cherry,plant,4.997212,6,correct,573.9997725,
R2,102,English,squid,animal,3.970292,5,correct,686.9997992,
R2,106,English,tortoise,animal,4.624973,8,correct,723.9997159,
R2,110,English,pineapple,plant,3.988984,9,correct,601.0000393,
R2,111,English,bee,animal,5.700444,3,correct,529.9999965,
R2,113,English,peanut,plant,4.59512,6,correct,723.9997159,
R2,114,English,ant,animal,5.347108,3,correct,592.9997634,
R2,115,English,pear,plant,4.727388,4,correct,607.0001268,
R2,117,English,walnut,plant,4.49981,6,correct,828.9998714,
R2,118,English,paprika,plant,2.484907,7,correct,804.9997767,
R2,121,English,potato,plant,6.461468,6,correct,668.9999598,
R2,123,English,lion,animal,6.098074,4,correct,616.9999853,
R2,126,English,fox,animal,5.652489,3,correct,584.00001,
R2,127,English,goat,animal,6.228511,4,correct,660.0001089,
R2,128,English,clove,plant,3.663562,5,correct,917.9996414,
R2,133,English,bunny,animal,3.332205,5,correct,644.0001764,
R2,134,English,olive,plant,5.587249,5,correct,512.000192,
R2,136,English,owl,animal,4.859812,3,correct,588.9998918,
R2,137,English,squirrel,animal,4.70953,8,correct,639.9998871,
R2,138,English,gull,animal,4.418841,4,correct,701.0000792,
R2,140,English,gherkin,plant,2.079442,7,correct,776.9997278,
R2,141,English,dog,animal,7.667626,3,correct,545.0001119,
R2,142,English,lettuce,plant,4.812184,7,correct,995.9997434,
R2,143,English,vulture,animal,4.248495,7,correct,739.0000584,
R2,145,English,eagle,animal,5.117994,5,correct,631.0000867,
R2,148,English,cucumber,plant,4.454347,8,correct,718.9997428,
R2,150,English,broccoli,plant,2.833213,8,correct,594.9997587,
R2,152,English,beaver,animal,3.951244,6,correct,600.0002069,
R2,153,English,grape,plant,5.192957,5,correct,602.9998814,
R2,158,English,frog,animal,5.129899,4,correct,590.0002732,
R2,160,English,stork,animal,3.044522,5,correct,723.9997159,
R2,164,English,magpie,animal,2.995732,6,correct,614.0000441,
R2,167,English,butterfly,animal,5.214936,9,correct,649.0001839,
R2,168,English,mole,animal,4.60517,4,correct,556.9998664,
R2,172,English,blackberry,plant,4.060443,10,correct,759.000169,
R2,173,English,eggplant,plant,1.791759,8,correct,535.9999137,
R2,175,English,asparagus,plant,3.663562,9,correct,707.0002362,
R2,176,English,almond,plant,4.204693,6,correct,651.0002329,
R2,179,English,mouse,animal,5.805135,5,correct,573.0001623,
R2,180,English,apple,plant,6.304449,5,correct,464.9998114,
R2,181,English,avocado,plant,3.433987,7,correct,649.9997641,
R2,184,English,goose,animal,5.267858,5,correct,562.0000844,
R3,25,English,camel,animal,6.109248,5,correct,897.0001237,
R3,26,English,lemon,plant,5.631212,5,correct,569.9997943,
R3,29,English,hedgehog,animal,3.637586,8,correct,525.9998881,
R3,30,English,dog,animal,7.667626,3,correct,422.9999243,
R3,33,English,whale,animal,5.298317,5,correct,546.0000132,
R3,37,English,tortoise,animal,4.624973,8,NA,NA,
R3,43,English,mole,animal,4.60517,4,correct,807.0002677,
R3,44,English,vulture,animal,4.248495,7,correct,930.0003849,
R3,45,English,almond,plant,4.204693,6,correct,561.000053,
R3,46,English,mushroom,plant,5.537334,8,correct,540.9998491,
R3,47,English,lion,animal,6.098074,4,correct,569.9997943,
R3,48,English,reindeer,animal,4.043051,8,correct,561.000053,
R3,49,English,bunny,animal,3.332205,5,correct,457.9999157,
R3,51,English,squid,animal,3.970292,5,correct,648.0001968,
R3,52,English,mustard,plant,4.442651,7,correct,762.0003386,
R3,53,English,eagle,animal,5.117994,5,correct,486.9999401,
R3,54,English,spider,animal,4.844187,6,NA,NA,
R3,55,English,peanut,plant,4.59512,6,correct,551.9999745,
R3,56,English,goat,animal,6.228511,4,correct,498.9999522,
R3,60,English,olive,plant,5.587249,5,correct,729.0001954,
R3,62,English,butterfly,animal,5.214936,9,correct,802.0003145,
R3,64,English,blueberry,plant,2.484907,9,correct,963.999716,
R3,66,English,clove,plant,3.663562,5,correct,746.0002982,
R3,69,English,blackberry,plant,4.060443,10,correct,721.9998997,
R3,70,English,radish,plant,3.044522,6,correct,688.0001115,
R3,74,English,donkey,animal,5.541264,6,correct,660.0001089,
R3,79,English,lettuce,plant,4.812184,7,correct,601.9997319,
R3,80,English,avocado,plant,3.433987,7,correct,598.0001471,
R3,81,English,sheep,animal,6.577861,5,correct,646.9998095,
R3,82,English,tomato,plant,5.545177,6,correct,469.0001086,
R3,83,English,asparagus,plant,3.663562,9,NA,NA,
R3,84,English,leek,plant,3.332205,4,correct,501.9999399,
R3,86,English,owl,animal,4.859812,3,correct,646.9998095,
R3,87,English,apricot,plant,3.828641,7,correct,570.9998803,
R3,90,English,frog,animal,5.129899,4,correct,652.0002856,
R3,93,English,bee,animal,5.700444,3,correct,570.9998803,
R3,97,English,crocodile,animal,4.615121,9,correct,977.00034,
R3,99,English,carrot,plant,4.976734,6,correct,652.9999156,
R3,100,English,cherry,plant,4.997212,6,correct,563.9998582,
R3,101,English,mouse,animal,5.805135,5,correct,494.0002385,
R3,106,English,cat,animal,7.086738,3,correct,587.0001058,
R3,107,English,beaver,animal,3.951244,6,correct,590.9999897,
R3,108,English,bat,animal,5.918894,3,correct,480.9998701,
R3,111,English,melon,plant,4.127134,5,correct,695.0001073,
R3,113,English,kiwi,plant,3.044522,4,correct,483.0001673,
R3,115,English,moose,animal,2.70805,5,correct,712.9997002,
R3,117,English,apple,plant,6.304449,5,correct,562.0000844,
R3,119,English,orange,plant,6.378426,6,correct,427.9999163,
R3,120,English,monkey,animal,5.783825,6,correct,469.0001086,
R3,121,English,stork,animal,3.044522,5,incorrect,576.0001954,
R3,124,English,wasp,animal,4.682131,4,correct,723.9997159,
R3,128,English,goose,animal,5.267858,5,correct,715.9998805,
R3,133,English,pear,plant,4.727388,4,correct,530.9999887,
R3,134,English,elephant,animal,6.063785,8,correct,587.0001058,
R3,136,English,potato,plant,6.461468,6,correct,722.9998394,
R3,137,English,gherkin,plant,2.079442,7,correct,663.9999007,
R3,138,English,snake,animal,6.120297,5,correct,639.9998871,
R3,139,English,pineapple,plant,3.988984,9,NA,NA,
R3,143,English,swan,animal,4.962845,4,correct,644.9997957,
R3,145,English,chicken,animal,6.59987,7,correct,524.9998621,
R3,146,English,pig,animal,6.660575,3,correct,475.0000931,
R3,148,English,horse,animal,7.77191,5,correct,485.0000529,
R3,149,English,gull,animal,4.418841,4,correct,606.0000084,
R3,150,English,banana,plant,5.023881,6,correct,480.9998701,
R3,152,English,eggplant,plant,1.791759,8,correct,506.0001673,
R3,153,English,woodpecker,animal,2.890372,10,correct,531.9997397,
R3,155,English,broccoli,plant,2.833213,8,NA,NA,
R3,157,English,shark,animal,5.880533,5,correct,464.0002078,
R3,162,English,grape,plant,5.192957,5,correct,490.9999373,
R3,168,English,cucumber,plant,4.454347,8,correct,780.999883,
R3,169,English,paprika,plant,2.484907,7,correct,631.0000867,
R3,171,English,magpie,animal,2.995732,6,correct,598.0001471,
R3,175,English,beetroot,plant,3.555348,8,correct,594.9997587,
R3,179,English,dolphin,animal,4.007333,7,incorrect,476.0000694,
R3,180,English,walnut,plant,4.49981,6,correct,652.9999156,
R3,181,English,strawberry,plant,4.75359,10,correct,520.000098,
R3,182,English,fox,animal,5.652489,3,correct,527.0002379,
R3,184,English,squirrel,animal,4.70953,8,correct,568.999753,
R3,185,English,ant,animal,5.347108,3,correct,476.9997658,
S,24,English,bee,animal,5.700444,3,correct,453.9999101,
S,25,English,apple,plant,6.304449,5,correct,473.9998475,
S,26,English,moose,animal,2.70805,5,correct,520.9999782,
S,29,English,beaver,animal,3.951244,6,correct,507.9997726,
S,31,English,eggplant,plant,1.791759,8,correct,510.0001399,
S,32,English,tortoise,animal,4.624973,8,correct,536.9999492,
S,34,English,blackberry,plant,4.060443,10,correct,511.0002094,
S,36,English,strawberry,plant,4.75359,10,correct,464.9998114,
S,43,English,spider,animal,4.844187,6,correct,504.9997832,
S,44,English,tomato,plant,5.545177,6,correct,561.000053,
S,45,English,mouse,animal,5.805135,5,correct,783.000238,
S,48,English,mole,animal,4.60517,4,correct,576.9998462,
S,53,English,squirrel,animal,4.70953,8,correct,739.0000584,
S,56,English,sheep,animal,6.577861,5,correct,613.0000393,
S,57,English,magpie,animal,2.995732,6,correct,1013.999813,
S,58,English,vulture,animal,4.248495,7,correct,1067.999979,
S,59,English,carrot,plant,4.976734,6,correct,487.9998019,
S,60,English,leek,plant,3.332205,4,correct,525.9998881,
S,61,English,blueberry,plant,2.484907,9,correct,634.0000289,
S,62,English,broccoli,plant,2.833213,8,correct,535.0001354,
S,63,English,asparagus,plant,3.663562,9,correct,961.9995665,
S,64,English,monkey,animal,5.783825,6,correct,539.9999246,
S,66,English,squid,animal,3.970292,5,correct,1018.999966,
S,68,English,eagle,animal,5.117994,5,correct,670.9999081,
S,71,English,clove,plant,3.663562,5,correct,695.0001073,
S,74,English,apricot,plant,3.828641,7,correct,592.0002161,
S,77,English,crocodile,animal,4.615121,9,correct,1264.000538,
S,78,English,paprika,plant,2.484907,7,correct,764.0001611,
S,81,English,peanut,plant,4.59512,6,correct,558.000021,
S,86,English,horse,animal,7.77191,5,correct,623.9997701,
S,87,English,banana,plant,5.023881,6,NA,NA,
S,88,English,pineapple,plant,3.988984,9,correct,646.9998095,
S,92,English,kiwi,plant,3.044522,4,correct,570.9998803,
S,94,English,butterfly,animal,5.214936,9,correct,751.0002615,
S,95,English,orange,plant,6.378426,6,correct,512.000192,
S,96,English,olive,plant,5.587249,5,correct,524.0001654,
S,97,English,cucumber,plant,4.454347,8,correct,549.999847,
S,99,English,bat,animal,5.918894,3,correct,552.9999992,
S,101,English,dog,animal,7.667626,3,correct,601.0000393,
S,108,English,mushroom,plant,5.537334,8,correct,785.0002215,
S,109,English,mustard,plant,4.442651,7,correct,616.0000225,
S,117,English,shark,animal,5.880533,5,correct,637.9998192,
S,118,English,dolphin,animal,4.007333,7,correct,688.9998133,
S,119,English,fox,animal,5.652489,3,correct,552.9999992,
S,123,English,goose,animal,5.267858,5,correct,548.9997576,
S,126,English,ant,animal,5.347108,3,NA,NA,
S,127,English,stork,animal,3.044522,5,correct,594.9997587,
S,130,English,wasp,animal,4.682131,4,correct,570.9998803,
S,133,English,cherry,plant,4.997212,6,correct,513.0000794,
S,135,English,lettuce,plant,4.812184,7,correct,506.9999982,
S,136,English,snake,animal,6.120297,5,correct,478.0001279,
S,137,English,radish,plant,3.044522,6,NA,NA,
S,139,English,camel,animal,6.109248,5,correct,464.9998114,
S,141,English,avocado,plant,3.433987,7,correct,782.0002029,
S,143,English,whale,animal,5.298317,5,correct,587.0001058,
S,144,English,lion,animal,6.098074,4,correct,450.0001878,
S,152,English,owl,animal,4.859812,3,correct,578.0000759,
S,153,English,pig,animal,6.660575,3,correct,594.9997587,
S,155,English,woodpecker,animal,2.890372,10,correct,488.9997606,
S,158,English,reindeer,animal,4.043051,8,incorrect,492.0001395,
S,159,English,lemon,plant,5.631212,5,correct,588.9998918,
S,160,English,donkey,animal,5.541264,6,correct,534.000086,
S,162,English,swan,animal,4.962845,4,correct,467.9998615,
S,163,English,walnut,plant,4.49981,6,NA,NA,
S,164,English,goat,animal,6.228511,4,correct,576.0001954,
S,165,English,almond,plant,4.204693,6,correct,539.9999246,
S,166,English,pear,plant,4.727388,4,correct,576.0001954,
S,167,English,frog,animal,5.129899,4,correct,441.0000549,
S,169,English,beetroot,plant,3.555348,8,correct,486.9999401,
S,170,English,elephant,animal,6.063785,8,correct,462.0000503,
S,172,English,chicken,animal,6.59987,7,correct,414.0000108,
S,174,English,bunny,animal,3.332205,5,correct,721.9998997,
S,176,English,potato,plant,6.461468,6,correct,454.9998094,
S,177,English,gull,animal,4.418841,4,correct,601.9997319,
S,179,English,grape,plant,5.192957,5,correct,501.9999399,
S,181,English,hedgehog,animal,3.637586,8,correct,619.9997036,
S,182,English,cat,animal,7.086738,3,correct,554.9999369,
S,183,English,gherkin,plant,2.079442,7,correct,743.9999741,
S,184,English,melon,plant,4.127134,5,correct,596.9999323,
T1,24,English,chicken,animal,6.59987,7,correct,495.0001175,
T1,25,English,cat,animal,7.086738,3,correct,513.0000794,
T1,26,English,avocado,plant,3.433987,7,correct,587.0001058,
T1,28,English,tomato,plant,5.545177,6,correct,824.9996813,
T1,30,English,broccoli,plant,2.833213,8,correct,576.9998462,
T1,33,English,eggplant,plant,1.791759,8,correct,545.0001119,
T1,34,English,almond,plant,4.204693,6,correct,558.9997355,
T1,35,English,eagle,animal,5.117994,5,correct,610.0000261,
T1,37,English,strawberry,plant,4.75359,10,correct,567.9997622,
T1,38,English,kiwi,plant,3.044522,4,correct,481.999945,
T1,39,English,mouse,animal,5.805135,5,correct,541.9999992,
T1,43,English,stork,animal,3.044522,5,incorrect,853.000386,
T1,45,English,gherkin,plant,2.079442,7,NA,NA,
T1,46,English,goose,animal,5.267858,5,correct,531.9997397,
T1,48,English,blackberry,plant,4.060443,10,correct,632.9997328,
T1,51,English,woodpecker,animal,2.890372,10,correct,730.0003401,
T1,52,English,lion,animal,6.098074,4,correct,486.9999401,
T1,55,English,spider,animal,4.844187,6,correct,600.0002069,
T1,56,English,hedgehog,animal,3.637586,8,correct,670.0001927,
T1,57,English,olive,plant,5.587249,5,correct,566.9998278,
T1,59,English,dolphin,animal,4.007333,7,correct,590.9999897,
T1,60,English,butterfly,animal,5.214936,9,correct,634.0000289,
T1,61,English,monkey,animal,5.783825,6,NA,NA,
T1,62,English,goat,animal,6.228511,4,correct,547.9998428,
T1,66,English,clove,plant,3.663562,5,correct,849.9997029,
T1,67,English,mustard,plant,4.442651,7,correct,634.0000289,
T1,68,English,magpie,animal,2.995732,6,correct,532.9997739,
T1,69,English,blueberry,plant,2.484907,9,correct,451.9999187,
T1,70,English,whale,animal,5.298317,5,NA,NA,
T1,72,English,reindeer,animal,4.043051,8,correct,1242.999886,
T1,73,English,lemon,plant,5.631212,5,correct,524.0001654,
T1,77,English,melon,plant,4.127134,5,correct,616.9999853,
T1,78,English,apricot,plant,3.828641,7,correct,656.9999879,
T1,79,English,orange,plant,6.378426,6,correct,646.9998095,
T1,82,English,owl,animal,4.859812,3,correct,598.0001471,
T1,84,English,bee,animal,5.700444,3,correct,813.9997021,
T1,86,English,bunny,animal,3.332205,5,correct,606.0000084,
T1,87,English,horse,animal,7.77191,5,correct,520.000098,
T1,88,English,leek,plant,3.332205,4,correct,707.9999337,
T1,89,English,potato,plant,6.461468,6,correct,404.9999728,
T1,90,English,carrot,plant,4.976734,6,correct,490.9999373,
T1,92,English,frog,animal,5.129899,4,correct,590.9999897,
T1,93,English,walnut,plant,4.49981,6,correct,565.9999557,
T1,96,English,squid,animal,3.970292,5,correct,539.9999246,
T1,103,English,apple,plant,6.304449,5,correct,561.000053,
T1,105,English,pineapple,plant,3.988984,9,correct,578.9997235,
T1,107,English,dog,animal,7.667626,3,correct,498.9999522,
T1,108,English,fox,animal,5.652489,3,correct,584.00001,
T1,109,English,tortoise,animal,4.624973,8,correct,616.9999853,
T1,118,English,gull,animal,4.418841,4,correct,733.0002185,
T1,119,English,sheep,animal,6.577861,5,correct,488.9997606,
T1,122,English,wasp,animal,4.682131,4,correct,632.9997328,
T1,125,English,donkey,animal,5.541264,6,correct,558.000021,
T1,129,English,asparagus,plant,3.663562,9,correct,616.9999853,
T1,131,English,beetroot,plant,3.555348,8,correct,554.0001735,
T1,132,English,bat,animal,5.918894,3,incorrect,438.9998187,
T1,134,English,ant,animal,5.347108,3,correct,558.9997355,
T1,137,English,vulture,animal,4.248495,7,correct,723.9997159,
T1,139,English,radish,plant,3.044522,6,correct,563.9998582,
T1,141,English,squirrel,animal,4.70953,8,correct,663.0000065,
T1,143,English,mole,animal,4.60517,4,correct,594.9997587,
T1,144,English,banana,plant,5.023881,6,correct,527.9998502,
T1,145,English,moose,animal,2.70805,5,correct,485.0000529,
T1,153,English,peanut,plant,4.59512,6,correct,486.9999401,
T1,155,English,shark,animal,5.880533,5,correct,492.9999142,
T1,156,English,camel,animal,6.109248,5,correct,549.999847,
T1,157,English,swan,animal,4.962845,4,correct,594.9997587,
T1,159,English,paprika,plant,2.484907,7,correct,676.9998152,
T1,160,English,crocodile,animal,4.615121,9,correct,607.0001268,
T1,165,English,snake,animal,6.120297,5,incorrect,434.0002022,
T1,166,English,pear,plant,4.727388,4,correct,554.9999369,
T1,168,English,cucumber,plant,4.454347,8,correct,637.0002194,
T1,170,English,elephant,animal,6.063785,8,correct,563.0002094,
T1,171,English,beaver,animal,3.951244,6,correct,483.0001673,
T1,177,English,lettuce,plant,4.812184,7,correct,499.9999508,
T1,178,English,grape,plant,5.192957,5,correct,538.0002366,
T1,179,English,cherry,plant,4.997212,6,correct,447.0001812,
T1,182,English,pig,animal,6.660575,3,correct,540.9998491,
T1,183,English,mushroom,plant,5.537334,8,correct,479.9999501,
T2,26,Other,reindeer,animal,4.043051,8,correct,1350.999543,
T2,27,Other,blueberry,plant,2.484907,9,correct,1337.000565,
T2,29,Other,horse,animal,7.77191,5,correct,940.9998687,
T2,32,Other,radish,plant,3.044522,6,correct,925.0002428,
T2,38,Other,beaver,animal,3.951244,6,correct,1105.000427,
T2,39,Other,banana,plant,5.023881,6,correct,917.9996414,
T2,40,Other,moose,animal,2.70805,5,correct,866.0000792,
T2,41,Other,squirrel,animal,4.70953,8,correct,1066.000421,
T2,44,Other,gherkin,plant,2.079442,7,incorrect,1973.000975,
T2,46,Other,butterfly,animal,5.214936,9,correct,916.9995669,
T2,48,Other,whale,animal,5.298317,5,correct,1139.000042,
T2,50,Other,blackberry,plant,4.060443,10,correct,930.0003849,
T2,52,Other,melon,plant,4.127134,5,correct,757.9997077,
T2,53,Other,spider,animal,4.844187,6,correct,982.9998819,
T2,54,Other,dog,animal,7.667626,3,correct,737.0000795,
T2,55,Other,pear,plant,4.727388,4,correct,833.0002981,
T2,56,Other,tortoise,animal,4.624973,8,correct,1115.99984,
T2,58,Other,kiwi,plant,3.044522,4,correct,715.9998805,
T2,60,Other,peanut,plant,4.59512,6,incorrect,1064.000351,
T2,62,Other,beetroot,plant,3.555348,8,correct,1132.999704,
T2,63,Other,squid,animal,3.970292,5,correct,941.9997413,
T2,64,Other,magpie,animal,2.995732,6,incorrect,903.0004033,
T2,66,Other,mole,animal,4.60517,4,correct,1059.999802,
T2,69,Other,walnut,plant,4.49981,6,NA,NA,
T2,72,Other,olive,plant,5.587249,5,correct,837.9999158,
T2,73,Other,camel,animal,6.109248,5,correct,1088.999866,
T2,74,Other,monkey,animal,5.783825,6,correct,869.9998159,
T2,77,Other,cat,animal,7.086738,3,correct,649.9997641,
T2,80,Other,pineapple,plant,3.988984,9,correct,1032.999515,
T2,81,Other,lemon,plant,5.631212,5,correct,585.0000894,
T2,82,Other,pig,animal,6.660575,3,correct,683.0000959,
T2,83,Other,wasp,animal,4.682131,4,correct,1140.999601,
T2,85,Other,mustard,plant,4.442651,7,correct,942.9997335,
T2,86,Other,strawberry,plant,4.75359,10,correct,977.00034,
T2,89,Other,shark,animal,5.880533,5,correct,911.0000936,
T2,92,Other,dolphin,animal,4.007333,7,correct,1112.999609,
T2,93,Other,hedgehog,animal,3.637586,8,incorrect,966.9995209,
T2,95,Other,vulture,animal,4.248495,7,incorrect,1372.000263,
T2,96,Other,goose,animal,5.267858,5,correct,979.00035,
T2,100,Other,swan,animal,4.962845,4,correct,869.9998159,
T2,101,Other,lion,animal,6.098074,4,correct,712.0000631,
T2,102,Other,eggplant,plant,1.791759,8,correct,993.0003336,
T2,103,Other,paprika,plant,2.484907,7,correct,1233.000613,
T2,108,Other,woodpecker,animal,2.890372,10,correct,1159.000182,
T2,109,Other,tomato,plant,5.545177,6,NA,NA,
T2,110,Other,gull,animal,4.418841,4,correct,727.9999649,
T2,112,Other,broccoli,plant,2.833213,8,correct,776.0003723,
T2,115,Other,clove,plant,3.663562,5,correct,710.9996944,
T2,117,Other,bat,animal,5.918894,3,correct,661.0001059,
T2,118,Other,apple,plant,6.304449,5,correct,672.9997781,
T2,119,Other,apricot,plant,3.828641,7,correct,881.0003296,
T2,121,Other,crocodile,animal,4.615121,9,incorrect,907.9996562,
T2,122,Other,almond,plant,4.204693,6,incorrect,969.9999306,
T2,124,Other,cucumber,plant,4.454347,8,correct,910.0003644,
T2,125,Other,lettuce,plant,4.812184,7,correct,827.9998722,
T2,131,Other,orange,plant,6.378426,6,correct,857.9999146,
T2,133,Other,grape,plant,5.192957,5,correct,894.000201,
T2,135,Other,eagle,animal,5.117994,5,correct,1157.000316,
T2,138,Other,frog,animal,5.129899,4,correct,721.9998997,
T2,142,Other,goat,animal,6.228511,4,correct,908.9999144,
T2,144,Other,potato,plant,6.461468,6,correct,964.9999022,
T2,145,Other,bee,animal,5.700444,3,correct,755.9997156,
T2,146,Other,chicken,animal,6.59987,7,correct,686.9997992,
T2,149,Other,leek,plant,3.332205,4,correct,686.0002554,
T2,151,Other,carrot,plant,4.976734,6,correct,738.0001294,
T2,152,Other,sheep,animal,6.577861,5,correct,712.9997002,
T2,157,Other,owl,animal,4.859812,3,correct,722.9998394,
T2,158,Other,snake,animal,6.120297,5,correct,869.9998159,
T2,159,Other,avocado,plant,3.433987,7,correct,900.9997679,
T2,162,Other,bunny,animal,3.332205,5,correct,1136.999439,
T2,164,Other,mushroom,plant,5.537334,8,correct,733.0002185,
T2,165,Other,ant,animal,5.347108,3,correct,675.0002087,
T2,166,Other,asparagus,plant,3.663562,9,correct,831.9996332,
T2,173,Other,fox,animal,5.652489,3,correct,694.0000274,
T2,174,Other,elephant,animal,6.063785,8,correct,1371.000439,
T2,175,Other,mouse,animal,5.805135,5,correct,666.9999694,
T2,178,Other,cherry,plant,4.997212,6,correct,1157.000316,
T2,179,Other,donkey,animal,5.541264,6,correct,791.0000255,
T2,183,Other,stork,animal,3.044522,5,correct,978.0003227,
V,23,Other,stork,animal,3.044522,5,incorrect,1013.999813,
V,25,Other,eagle,animal,5.117994,5,correct,1051.999586,
V,28,Other,dog,animal,7.667626,3,correct,617.9997173,
V,29,Other,clove,plant,3.663562,5,correct,859.9996652,
V,31,Other,swan,animal,4.962845,4,correct,938.99955,
V,32,Other,ant,animal,5.347108,3,correct,585.0000894,
V,33,Other,melon,plant,4.127134,5,correct,661.0001059,
V,35,Other,wasp,animal,4.682131,4,correct,738.0001294,
V,36,Other,shark,animal,5.880533,5,correct,565.9999557,
V,39,Other,snake,animal,6.120297,5,correct,631.0000867,
V,42,Other,donkey,animal,5.541264,6,correct,675.0002087,
V,45,Other,gull,animal,4.418841,4,correct,659.0003068,
V,46,Other,radish,plant,3.044522,6,correct,857.0000698,
V,48,Other,cucumber,plant,4.454347,8,correct,837.9999158,
V,52,Other,pear,plant,4.727388,4,correct,712.0000631,
V,55,Other,mouse,animal,5.805135,5,correct,606.0000084,
V,57,Other,leek,plant,3.332205,4,correct,737.0000795,
V,60,Other,goat,animal,6.228511,4,correct,600.0002069,
V,61,Other,gherkin,plant,2.079442,7,incorrect,881.0003296,
V,63,Other,pineapple,plant,3.988984,9,correct,871.9996304,
V,66,Other,grape,plant,5.192957,5,correct,634.0000289,
V,67,Other,tortoise,animal,4.624973,8,correct,1159.000182,
V,69,Other,dolphin,animal,4.007333,7,correct,625.9997677,
V,70,Other,sheep,animal,6.577861,5,correct,588.9998918,
V,72,Other,mustard,plant,4.442651,7,correct,854.9995991,
V,73,Other,whale,animal,5.298317,5,correct,660.0001089,
V,74,Other,eggplant,plant,1.791759,8,correct,739.0000584,
V,77,Other,squirrel,animal,4.70953,8,correct,891.9998817,
V,78,Other,pig,animal,6.660575,3,correct,570.9998803,
V,79,Other,walnut,plant,4.49981,6,correct,692.0000307,
V,81,Other,bee,animal,5.700444,3,correct,556.9998664,
V,83,Other,peanut,plant,4.59512,6,correct,627.000288,
V,84,Other,orange,plant,6.378426,6,correct,727.9999649,
V,87,Other,avocado,plant,3.433987,7,correct,666.9999694,
V,89,Other,almond,plant,4.204693,6,correct,682.0002334,
V,93,Other,squid,animal,3.970292,5,correct,814.9999077,
V,97,Other,lion,animal,6.098074,4,correct,628.9998385,
V,99,Other,butterfly,animal,5.214936,9,correct,683.0000959,
V,101,Other,spider,animal,4.844187,6,correct,573.9997725,
V,106,Other,elephant,animal,6.063785,8,NA,NA,
V,107,Other,crocodile,animal,4.615121,9,correct,836.999941,
V,108,Other,cat,animal,7.086738,3,correct,611.9998271,
V,110,Other,mole,animal,4.60517,4,correct,703.9997493,
V,112,Other,cherry,plant,4.997212,6,correct,721.9998997,
V,117,Other,lettuce,plant,4.812184,7,correct,827.0002522,
V,119,Other,camel,animal,6.109248,5,correct,940.0001173,
V,121,Other,bunny,animal,3.332205,5,correct,755.0001893,
V,122,Other,frog,animal,5.129899,4,correct,661.0001059,
V,123,Other,beaver,animal,3.951244,6,correct,837.9999158,
V,130,Other,horse,animal,7.77191,5,correct,976.0004037,
V,131,Other,banana,plant,5.023881,6,correct,587.0001058,
V,133,Other,olive,plant,5.587249,5,correct,725.9999892,
V,135,Other,lemon,plant,5.631212,5,correct,617.9997173,
V,137,Other,kiwi,plant,3.044522,4,correct,670.9999081,
V,138,Other,owl,animal,4.859812,3,correct,895.0002521,
V,139,Other,magpie,animal,2.995732,6,correct,894.000201,
V,140,Other,blueberry,plant,2.484907,9,correct,620.9999491,
V,141,Other,reindeer,animal,4.043051,8,correct,913.000109,
V,142,Other,mushroom,plant,5.537334,8,correct,715.000327,
V,143,Other,goose,animal,5.267858,5,correct,574.9999765,
V,144,Other,moose,animal,2.70805,5,correct,588.9998918,
V,145,Other,paprika,plant,2.484907,7,correct,684.0000563,
V,146,Other,strawberry,plant,4.75359,10,correct,707.0002362,
V,147,Other,vulture,animal,4.248495,7,correct,1026.999784,
V,148,Other,beetroot,plant,3.555348,8,correct,670.0001927,
V,150,Other,apple,plant,6.304449,5,correct,666.9999694,
V,154,Other,woodpecker,animal,2.890372,10,correct,888.0002282,
V,155,Other,chicken,animal,6.59987,7,correct,639.9998871,
V,160,Other,hedgehog,animal,3.637586,8,correct,918.9998876,
V,162,Other,asparagus,plant,3.663562,9,correct,845.0003149,
V,164,Other,blackberry,plant,4.060443,10,correct,795.9998521,
V,165,Other,carrot,plant,4.976734,6,correct,617.9997173,
V,166,Other,fox,animal,5.652489,3,correct,596.0001984,
V,169,Other,monkey,animal,5.783825,6,correct,649.0001839,
V,171,Other,tomato,plant,5.545177,6,correct,616.9999853,
V,177,Other,bat,animal,5.918894,3,NA,NA,
V,178,Other,potato,plant,6.461468,6,correct,749.0000123,
V,179,Other,apricot,plant,3.828641,7,correct,636.0002777,
V,181,Other,broccoli,plant,2.833213,8,correct,786.9998045,
W1,33,English,grape,plant,5.192957,5,NA,NA,
W1,34,English,monkey,animal,5.783825,6,correct,561.000053,
W1,36,English,pig,animal,6.660575,3,correct,590.9999897,
W1,37,English,pineapple,plant,3.988984,9,NA,NA,
W1,38,English,avocado,plant,3.433987,7,correct,532.9997739,
W1,41,English,bat,animal,5.918894,3,correct,501.9999399,
W1,43,English,broccoli,plant,2.833213,8,correct,512.000192,
W1,48,English,hedgehog,animal,3.637586,8,correct,714.0000269,
W1,50,English,swan,animal,4.962845,4,correct,570.9998803,
W1,51,English,chicken,animal,6.59987,7,correct,496.999987,
W1,52,English,walnut,plant,4.49981,6,correct,515.0000512,
W1,53,English,mouse,animal,5.805135,5,correct,481.999945,
W1,54,English,strawberry,plant,4.75359,10,correct,494.0002385,
W1,57,English,radish,plant,3.044522,6,correct,590.0002732,
W1,58,English,elephant,animal,6.063785,8,correct,466.9998797,
W1,59,English,donkey,animal,5.541264,6,correct,462.999975,
W1,65,English,tortoise,animal,4.624973,8,NA,NA,
W1,68,English,leek,plant,3.332205,4,correct,590.9999897,
W1,69,English,beetroot,plant,3.555348,8,correct,683.0000959,
W1,71,English,woodpecker,animal,2.890372,10,correct,581.9997394,
W1,74,English,almond,plant,4.204693,6,correct,568.999753,
W1,76,English,apple,plant,6.304449,5,correct,539.0002313,
W1,77,English,ant,animal,5.347108,3,correct,561.000053,
W1,78,English,moose,animal,2.70805,5,correct,470.0001435,
W1,79,English,kiwi,plant,3.044522,4,correct,483.0001673,
W1,82,English,cucumber,plant,4.454347,8,correct,565.9999557,
W1,83,English,blackberry,plant,4.060443,10,correct,466.9998797,
W1,84,English,beaver,animal,3.951244,6,correct,520.000098,
W1,85,English,mushroom,plant,5.537334,8,correct,484.0000451,
W1,86,English,eagle,animal,5.117994,5,correct,458.9999036,
W1,88,English,lettuce,plant,4.812184,7,correct,504.9997832,
W1,89,English,lion,animal,6.098074,4,correct,466.0001705,
W1,92,English,olive,plant,5.587249,5,correct,450.0001878,
W1,94,English,bunny,animal,3.332205,5,correct,486.0001828,
W1,97,English,cat,animal,7.086738,3,correct,494.0002385,
W1,98,English,gherkin,plant,2.079442,7,incorrect,632.9997328,
W1,99,English,wasp,animal,4.682131,4,correct,494.0002385,
W1,101,English,owl,animal,4.859812,3,correct,532.9997739,
W1,102,English,paprika,plant,2.484907,7,incorrect,556.9998664,
W1,103,English,whale,animal,5.298317,5,correct,513.9998636,
W1,105,English,goat,animal,6.228511,4,correct,429.0000348,
W1,106,English,peanut,plant,4.59512,6,correct,456.0000869,
W1,108,English,banana,plant,5.023881,6,correct,483.0001673,
W1,109,English,frog,animal,5.129899,4,correct,464.0002078,
W1,112,English,reindeer,animal,4.043051,8,correct,643.0001773,
W1,113,English,sheep,animal,6.577861,5,correct,421.9998675,
W1,120,English,fox,animal,5.652489,3,correct,671.9997712,
W1,121,English,apricot,plant,3.828641,7,correct,535.0001354,
W1,123,English,camel,animal,6.109248,5,correct,551.9999745,
W1,124,English,squid,animal,3.970292,5,correct,492.0001395,
W1,128,English,dolphin,animal,4.007333,7,correct,506.0001673,
W1,129,English,cherry,plant,4.997212,6,correct,652.0002856,
W1,130,English,vulture,animal,4.248495,7,correct,508.9999916,
W1,132,English,stork,animal,3.044522,5,incorrect,554.0001735,
W1,133,English,butterfly,animal,5.214936,9,correct,513.9998636,
W1,136,English,asparagus,plant,3.663562,9,correct,500.9999494,
W1,138,English,bee,animal,5.700444,3,correct,456.0000869,
W1,139,English,pear,plant,4.727388,4,correct,528.9997715,
W1,140,English,horse,animal,7.77191,5,correct,464.9998114,
W1,141,English,magpie,animal,2.995732,6,correct,498.9999522,
W1,142,English,snake,animal,6.120297,5,correct,486.9999401,
W1,143,English,gull,animal,4.418841,4,correct,500.9999494,
W1,145,English,mole,animal,4.60517,4,correct,469.0001086,
W1,147,English,squirrel,animal,4.70953,8,correct,517.9998745,
W1,148,English,goose,animal,5.267858,5,correct,504.9997832,
W1,149,English,dog,animal,7.667626,3,correct,492.9999142,
W1,151,English,potato,plant,6.461468,6,correct,510.0001399,
W1,153,English,shark,animal,5.880533,5,correct,460.9999802,
W1,160,English,lemon,plant,5.631212,5,correct,549.999847,
W1,163,English,mustard,plant,4.442651,7,correct,576.9998462,
W1,165,English,melon,plant,4.127134,5,correct,547.0001081,
W1,166,English,tomato,plant,5.545177,6,correct,506.9999982,
W1,167,English,spider,animal,4.844187,6,correct,527.9998502,
W1,168,English,blueberry,plant,2.484907,9,correct,517.0000649,
W1,172,English,clove,plant,3.663562,5,correct,634.0000289,
W1,173,English,crocodile,animal,4.615121,9,correct,513.9998636,
W1,176,English,eggplant,plant,1.791759,8,correct,528.9997715,
W1,180,English,carrot,plant,4.976734,6,correct,567.9997622,
W1,181,English,orange,plant,6.378426,6,correct,492.0001395,
W2,25,English,avocado,plant,3.433987,7,correct,753.9997225,
W2,28,English,blueberry,plant,2.484907,9,correct,683.0000959,
W2,31,English,squirrel,animal,4.70953,8,correct,611.9998271,
W2,33,English,mushroom,plant,5.537334,8,correct,602.9998814,
W2,34,English,woodpecker,animal,2.890372,10,correct,628.9998385,
W2,35,English,banana,plant,5.023881,6,correct,565.0001519,
W2,36,English,cat,animal,7.086738,3,correct,489.9998084,
W2,45,English,donkey,animal,5.541264,6,correct,651.0002329,
W2,47,English,potato,plant,6.461468,6,correct,1086.000542,
W2,48,English,blackberry,plant,4.060443,10,correct,719.9998474,
W2,51,English,owl,animal,4.859812,3,correct,664.999973,
W2,55,English,lemon,plant,5.631212,5,correct,599.0002407,
W2,57,English,kiwi,plant,3.044522,4,correct,900.000213,
W2,60,English,bat,animal,5.918894,3,correct,683.0000959,
W2,62,English,grape,plant,5.192957,5,correct,739.9998622,
W2,64,English,hedgehog,animal,3.637586,8,NA,NA,
W2,68,English,mole,animal,4.60517,4,correct,712.9997002,
W2,69,English,carrot,plant,4.976734,6,correct,663.9999007,
W2,74,English,ant,animal,5.347108,3,correct,623.9997701,
W2,75,English,fox,animal,5.652489,3,correct,686.9997992,
W2,76,English,mustard,plant,4.442651,7,correct,623.0002998,
W2,78,English,lettuce,plant,4.812184,7,correct,599.0002407,
W2,80,English,paprika,plant,2.484907,7,correct,729.0001954,
W2,83,English,cucumber,plant,4.454347,8,correct,718.9997428,
W2,85,English,sheep,animal,6.577861,5,correct,688.0001115,
W2,89,English,lion,animal,6.098074,4,correct,705.9998323,
W2,90,English,vulture,animal,4.248495,7,correct,888.9997906,
W2,95,English,radish,plant,3.044522,6,correct,912.0000091,
W2,98,English,crocodile,animal,4.615121,9,correct,923.9999338,
W2,99,English,snake,animal,6.120297,5,correct,602.9998814,
W2,101,English,strawberry,plant,4.75359,10,correct,807.0002677,
W2,102,English,goose,animal,5.267858,5,correct,574.9999765,
W2,107,English,frog,animal,5.129899,4,correct,670.0001927,
W2,111,English,eagle,animal,5.117994,5,correct,684.0000563,
W2,112,English,moose,animal,2.70805,5,correct,795.9998521,
W2,115,English,wasp,animal,4.682131,4,correct,1107.000074,
W2,118,English,bee,animal,5.700444,3,correct,545.0001119,
W2,119,English,squid,animal,3.970292,5,correct,620.9999491,
W2,121,English,asparagus,plant,3.663562,9,correct,848.9998418,
W2,122,English,melon,plant,4.127134,5,correct,688.0001115,
W2,123,English,gull,animal,4.418841,4,correct,616.0000225,
W2,124,English,clove,plant,3.663562,5,correct,563.9998582,
W2,125,English,tortoise,animal,4.624973,8,correct,767.0001524,
W2,126,English,horse,animal,7.77191,5,correct,662.000294,
W2,127,English,tomato,plant,5.545177,6,NA,NA,
W2,128,English,monkey,animal,5.783825,6,correct,487.9998019,
W2,129,English,dog,animal,7.667626,3,correct,539.0002313,
W2,130,English,swan,animal,4.962845,4,correct,472.9998162,
W2,131,English,pineapple,plant,3.988984,9,correct,573.9997725,
W2,132,English,eggplant,plant,1.791759,8,correct,531.9997397,
W2,135,English,orange,plant,6.378426,6,correct,510.0001399,
W2,137,English,peanut,plant,4.59512,6,correct,554.9999369,
W2,138,English,magpie,animal,2.995732,6,correct,567.9997622,
W2,140,English,shark,animal,5.880533,5,correct,542.9998263,
W2,142,English,leek,plant,3.332205,4,correct,579.9999399,
W2,145,English,butterfly,animal,5.214936,9,correct,569.9997943,
W2,146,English,bunny,animal,3.332205,5,correct,554.9999369,
W2,147,English,apple,plant,6.304449,5,correct,522.0002151,
W2,148,English,goat,animal,6.228511,4,NA,NA,
W2,149,English,camel,animal,6.109248,5,correct,590.0002732,
W2,151,English,elephant,animal,6.063785,8,correct,524.9998621,
W2,152,English,spider,animal,4.844187,6,correct,554.0001735,
W2,154,English,stork,animal,3.044522,5,correct,590.9999897,
W2,155,English,broccoli,plant,2.833213,8,correct,774.9999773,
W2,157,English,mouse,animal,5.805135,5,correct,875.0000994,
W2,159,English,apricot,plant,3.828641,7,correct,730.0003401,
W2,161,English,walnut,plant,4.49981,6,correct,623.9997701,
W2,162,English,almond,plant,4.204693,6,correct,529.9999965,
W2,163,English,olive,plant,5.587249,5,correct,496.0000363,
W2,165,English,beaver,animal,3.951244,6,correct,464.9998114,
W2,166,English,gherkin,plant,2.079442,7,correct,820.9999101,
W2,169,English,dolphin,animal,4.007333,7,correct,590.0002732,
W2,170,English,reindeer,animal,4.043051,8,correct,666.9999694,
W2,171,English,chicken,animal,6.59987,7,correct,485.0000529,
W2,174,English,beetroot,plant,3.555348,8,correct,617.9997173,
W2,175,English,pig,animal,6.660575,3,correct,502.9999144,
W2,176,English,pear,plant,4.727388,4,correct,490.9999373,
W2,179,English,whale,animal,5.298317,5,correct,640.9997071,
W2,183,English,cherry,plant,4.997212,6,NA,NA,
Z,24,Other,radish,plant,3.044522,6,correct,767.0001524,
Z,25,Other,leek,plant,3.332205,4,correct,555.9998364,
Z,28,Other,potato,plant,6.461468,6,correct,606.0000084,
Z,30,Other,squid,animal,3.970292,5,correct,640.9997071,
Z,31,Other,grape,plant,5.192957,5,correct,596.0001984,
Z,34,Other,paprika,plant,2.484907,7,incorrect,743.9999741,
Z,36,Other,monkey,animal,5.783825,6,correct,726.9996528,
Z,38,Other,cucumber,plant,4.454347,8,correct,888.9997906,
Z,39,Other,dolphin,animal,4.007333,7,correct,774.9999773,
Z,40,Other,bee,animal,5.700444,3,correct,578.9997235,
Z,49,Other,stork,animal,3.044522,5,correct,1225.999857,
Z,50,Other,elephant,animal,6.063785,8,correct,827.0002522,
Z,51,Other,camel,animal,6.109248,5,correct,822.9998348,
Z,52,Other,orange,plant,6.378426,6,correct,632.9997328,
Z,57,Other,moose,animal,2.70805,5,correct,739.9998622,
Z,59,Other,bat,animal,5.918894,3,correct,607.0001268,
Z,61,Other,butterfly,animal,5.214936,9,correct,783.000238,
Z,63,Other,goose,animal,5.267858,5,correct,670.9999081,
Z,64,Other,olive,plant,5.587249,5,correct,578.0000759,
Z,65,Other,banana,plant,5.023881,6,correct,573.9997725,
Z,70,Other,beetroot,plant,3.555348,8,correct,1146.999866,
Z,73,Other,pig,animal,6.660575,3,NA,NA,
Z,74,Other,apricot,plant,3.828641,7,correct,634.0000289,
Z,75,Other,lettuce,plant,4.812184,7,correct,795.9998521,
Z,77,Other,spider,animal,4.844187,6,correct,790.0000431,
Z,78,Other,mole,animal,4.60517,4,correct,809.9997994,
Z,79,Other,broccoli,plant,2.833213,8,correct,948.0004719,
Z,81,Other,carrot,plant,4.976734,6,correct,614.0000441,
Z,82,Other,mouse,animal,5.805135,5,correct,569.9997943,
Z,84,Other,almond,plant,4.204693,6,incorrect,888.0002282,
Z,86,Other,chicken,animal,6.59987,7,correct,625.9997677,
Z,87,Other,snake,animal,6.120297,5,correct,683.0000959,
Z,88,Other,fox,animal,5.652489,3,correct,540.9998491,
Z,89,Other,woodpecker,animal,2.890372,10,correct,997.9997242,
Z,91,Other,dog,animal,7.667626,3,correct,853.000386,
Z,96,Other,eagle,animal,5.117994,5,correct,670.9999081,
Z,101,Other,tortoise,animal,4.624973,8,incorrect,811.9997238,
Z,106,Other,whale,animal,5.298317,5,correct,699.0001802,
Z,110,Other,pear,plant,4.727388,4,correct,587.0001058,
Z,111,Other,hedgehog,animal,3.637586,8,correct,1130.0001,
Z,112,Other,reindeer,animal,4.043051,8,correct,936.9997355,
Z,117,Other,gull,animal,4.418841,4,correct,878.0003568,
Z,119,Other,crocodile,animal,4.615121,9,correct,956.0000831,
Z,123,Other,beaver,animal,3.951244,6,correct,714.0000269,
Z,125,Other,magpie,animal,2.995732,6,correct,1307.000374,
Z,129,Other,wasp,animal,4.682131,4,incorrect,1096.999495,
Z,131,Other,sheep,animal,6.577861,5,correct,672.9997781,
Z,132,Other,ant,animal,5.347108,3,correct,555.9998364,
Z,133,Other,walnut,plant,4.49981,6,incorrect,814.9999077,
Z,135,Other,vulture,animal,4.248495,7,correct,902.0004329,
Z,136,Other,asparagus,plant,3.663562,9,incorrect,854.9995991,
Z,138,Other,mustard,plant,4.442651,7,correct,749.9998451,
Z,139,Other,donkey,animal,5.541264,6,correct,705.9998323,
Z,141,Other,blueberry,plant,2.484907,9,NA,NA,
Z,144,Other,clove,plant,3.663562,5,correct,632.9997328,
Z,145,Other,gherkin,plant,2.079442,7,incorrect,997.0002293,
Z,146,Other,apple,plant,6.304449,5,correct,565.9999557,
Z,149,Other,bunny,animal,3.332205,5,correct,641.999805,
Z,151,Other,goat,animal,6.228511,4,correct,554.0001735,
Z,152,Other,peanut,plant,4.59512,6,correct,686.0002554,
Z,154,Other,kiwi,plant,3.044522,4,correct,699.0001802,
Z,157,Other,pineapple,plant,3.988984,9,correct,877.0000067,
Z,159,Other,lion,animal,6.098074,4,correct,594.9997587,
Z,161,Other,shark,animal,5.880533,5,correct,785.0002215,
Z,162,Other,blackberry,plant,4.060443,10,correct,726.9996528,
Z,163,Other,lemon,plant,5.631212,5,correct,625.9997677,
Z,165,Other,tomato,plant,5.545177,6,correct,558.000021,
Z,167,Other,strawberry,plant,4.75359,10,correct,661.0001059,
Z,168,Other,eggplant,plant,1.791759,8,correct,873.0003878,
Z,171,Other,cherry,plant,4.997212,6,correct,551.9999745,
Z,173,Other,melon,plant,4.127134,5,correct,684.0000563,
Z,175,Other,owl,animal,4.859812,3,correct,817.9997247,
Z,176,Other,cat,animal,7.086738,3,correct,520.000098,
Z,177,Other,mushroom,plant,5.537334,8,correct,780.999883,
Z,178,Other,swan,animal,4.962845,4,correct,668.9999598,
Z,179,Other,squirrel,animal,4.70953,8,correct,864.0001998,
Z,181,Other,avocado,plant,3.433987,7,correct,881.9999506,
Z,182,Other,frog,animal,5.129899,4,correct,501.9999399,
Z,185,Other,horse,animal,7.77191,5,correct,608.999837,
22,23,OTHER,dog,animal,7.667626,3,correct,541.339663,
22,25,OTHER,apricot,plant,3.828641,7,incorrect,517.7533226,
22,31,OTHER,beaver,animal,3.951244,6,correct,562.2041913,
22,32,OTHER,dolphin,animal,4.007333,7,correct,589.360618,
22,33,OTHER,walnut,plant,4.49981,6,correct,592.3664382,
22,36,OTHER,camel,animal,6.109248,5,correct,547.3578917,
22,39,OTHER,olive,plant,5.587249,5,NA,NA,
22,42,OTHER,whale,animal,5.298317,5,correct,427.1186758,
22,44,OTHER,donkey,animal,5.541264,6,correct,510.7424504,
22,45,OTHER,lettuce,plant,4.812184,7,correct,499.9360154,
22,46,OTHER,gull,animal,4.418841,4,correct,432.0799181,
22,50,OTHER,goat,animal,6.228511,4,correct,331.5696743,
22,53,OTHER,hedgehog,animal,3.637586,8,correct,455.8213215,
22,54,OTHER,spider,animal,4.844187,6,correct,492.8126783,
22,55,OTHER,squid,animal,3.970292,5,correct,432.5290471,
22,57,OTHER,mustard,plant,4.442651,7,correct,459.7413733,
22,59,OTHER,radish,plant,3.044522,6,correct,469.3369137,
22,63,OTHER,lemon,plant,5.631212,5,correct,508.2111037,
22,65,OTHER,chicken,animal,6.59987,7,correct,491.864302,
22,66,OTHER,lion,animal,6.098074,4,correct,931.7450585,
22,67,OTHER,paprika,plant,2.484907,7,correct,471.5216691,
22,68,OTHER,moose,animal,2.70805,5,correct,512.2036276,
22,71,OTHER,cherry,plant,4.997212,6,correct,504.361773,
22,72,OTHER,reindeer,animal,4.043051,8,incorrect,534.4791075,
22,73,OTHER,owl,animal,4.859812,3,correct,441.678004,
22,74,OTHER,asparagus,plant,3.663562,9,correct,537.7696872,
22,79,OTHER,mouse,animal,5.805135,5,correct,372.2512101,
22,83,OTHER,kiwi,plant,3.044522,4,correct,521.7438537,
22,84,OTHER,bee,animal,5.700444,3,correct,528.1050659,
22,85,OTHER,leek,plant,3.332205,4,correct,873.2438265,
22,87,OTHER,woodpecker,animal,2.890372,10,correct,527.6075058,
22,90,OTHER,shark,animal,5.880533,5,correct,487.8049105,
22,91,OTHER,vulture,animal,4.248495,7,correct,684.9504238,
22,92,OTHER,avocado,plant,3.433987,7,correct,382.2132325,
22,93,OTHER,crocodile,animal,4.615121,9,correct,355.2836035,
22,94,OTHER,frog,animal,5.129899,4,correct,410.454518,
22,95,OTHER,cucumber,plant,4.454347,8,correct,469.1308921,
22,99,OTHER,eagle,animal,5.117994,5,correct,424.1278301,
22,100,OTHER,tomato,plant,5.545177,6,correct,469.5111053,
22,101,OTHER,broccoli,plant,2.833213,8,correct,515.9545951,
22,103,OTHER,eggplant,plant,1.791759,8,correct,468.1814636,
22,105,OTHER,strawberry,plant,4.75359,10,correct,429.0208503,
22,107,OTHER,stork,animal,3.044522,5,correct,697.4429916,
22,108,OTHER,blackberry,plant,4.060443,10,correct,526.9180535,
22,110,OTHER,clove,plant,3.663562,5,correct,528.5780402,
22,111,OTHER,bunny,animal,3.332205,5,correct,467.7996615,
22,112,OTHER,horse,animal,7.77191,5,correct,386.3577008,
22,115,OTHER,mole,animal,4.60517,4,correct,641.0392002,
22,116,OTHER,ant,animal,5.347108,3,correct,466.6121365,
22,117,OTHER,goose,animal,5.267858,5,correct,381.8083644,
22,122,OTHER,pear,plant,4.727388,4,correct,502.3359113,
22,123,OTHER,snake,animal,6.120297,5,correct,461.3149408,
22,125,OTHER,bat,animal,5.918894,3,correct,485.2766039,
22,126,OTHER,wasp,animal,4.682131,4,correct,459.4712726,
22,134,OTHER,monkey,animal,5.783825,6,correct,548.4193188,
22,135,OTHER,banana,plant,5.023881,6,correct,519.4767293,
22,141,OTHER,potato,plant,6.461468,6,correct,462.3253485,
22,142,OTHER,carrot,plant,4.976734,6,correct,543.8372098,
22,143,OTHER,orange,plant,6.378426,6,correct,529.1371241,
22,146,OTHER,pineapple,plant,3.988984,9,correct,554.6695467,
22,148,OTHER,sheep,animal,6.577861,5,correct,479.8565324,
22,149,OTHER,melon,plant,4.127134,5,correct,483.645729,
22,150,OTHER,butterfly,animal,5.214936,9,correct,401.9673526,
22,152,OTHER,magpie,animal,2.995732,6,correct,521.1503868,
22,153,OTHER,blueberry,plant,2.484907,9,correct,438.6509515,
22,154,OTHER,peanut,plant,4.59512,6,correct,403.9481801,
22,156,OTHER,mushroom,plant,5.537334,8,correct,448.6217038,
22,159,OTHER,pig,animal,6.660575,3,correct,347.626198,
22,160,OTHER,squirrel,animal,4.70953,8,correct,671.6034369,
22,163,OTHER,elephant,animal,6.063785,8,correct,521.368566,
22,165,OTHER,swan,animal,4.962845,4,correct,688.9036256,
22,166,OTHER,gherkin,plant,2.079442,7,correct,817.6294032,
22,169,OTHER,tortoise,animal,4.624973,8,correct,652.1849119,
22,171,OTHER,beetroot,plant,3.555348,8,correct,477.3510538,
22,173,OTHER,almond,plant,4.204693,6,correct,559.411544,
22,174,OTHER,fox,animal,5.652489,3,correct,583.058045,
22,176,OTHER,grape,plant,5.192957,5,correct,491.7938902,
22,180,OTHER,cat,animal,7.086738,3,correct,524.6720919,
22,184,OTHER,apple,plant,6.304449,5,correct,504.4319761,
23,28,,strawberry,plant,4.75359,10,correct,648.7138386,
23,29,,crocodile,animal,4.615121,9,correct,537.1276835,
23,32,,cherry,plant,4.997212,6,correct,614.6004091,
23,34,,bunny,animal,3.332205,5,correct,612.542153,
23,35,,paprika,plant,2.484907,7,correct,829.0555519,
23,36,,lemon,plant,5.631212,5,correct,578.0099435,
23,40,,clove,plant,3.663562,5,correct,588.6272978,
23,41,,ant,animal,5.347108,3,correct,602.030589,
23,44,,pig,animal,6.660575,3,correct,550.7088491,
23,46,,shark,animal,5.880533,5,correct,579.7514495,
23,48,,kiwi,plant,3.044522,4,incorrect,554.9008894,
23,50,,owl,animal,4.859812,3,correct,677.2090792,
23,51,,avocado,plant,3.433987,7,incorrect,552.5253545,
23,52,,fox,animal,5.652489,3,correct,513.9088286,
23,55,,goat,animal,6.228511,4,correct,613.9945598,
23,56,,walnut,plant,4.49981,6,correct,532.6688985,
23,57,,tortoise,animal,4.624973,8,correct,667.5077594,
23,58,,goose,animal,5.267858,5,correct,574.9405683,
23,61,,eggplant,plant,1.791759,8,correct,591.9165599,
23,64,,moose,animal,2.70805,5,NA,NA,
23,65,,gull,animal,4.418841,4,correct,675.9696013,
23,67,,eagle,animal,5.117994,5,correct,536.5002878,
23,69,,stork,animal,3.044522,5,correct,535.2583457,
23,70,,blueberry,plant,2.484907,9,correct,607.1079463,
23,71,,squid,animal,3.970292,5,correct,529.4148071,
23,72,,asparagus,plant,3.663562,9,correct,596.9437437,
23,73,,carrot,plant,4.976734,6,correct,581.3004535,
23,74,,lettuce,plant,4.812184,7,correct,566.6640398,
23,75,,snake,animal,6.120297,5,correct,501.176801,
23,79,,hedgehog,animal,3.637586,8,correct,908.8993092,
23,80,,butterfly,animal,5.214936,9,correct,617.9697673,
23,82,,beaver,animal,3.951244,6,correct,521.74988,
23,83,,banana,plant,5.023881,6,correct,465.9888013,
23,85,,cat,animal,7.086738,3,correct,639.1487667,
23,89,,elephant,animal,6.063785,8,correct,555.0838375,
23,90,,peanut,plant,4.59512,6,correct,615.3976659,
23,93,,cucumber,plant,4.454347,8,correct,574.6183579,
23,96,,chicken,animal,6.59987,7,correct,572.6529144,
23,98,,mustard,plant,4.442651,7,correct,448.1432593,
23,100,,apple,plant,6.304449,5,correct,600.3369844,
23,105,,monkey,animal,5.783825,6,correct,497.3639723,
23,106,,melon,plant,4.127134,5,correct,562.6851959,
23,108,,leek,plant,3.332205,4,correct,546.3398892,
23,109,,camel,animal,6.109248,5,correct,519.3837302,
23,111,,woodpecker,animal,2.890372,10,correct,660.0587141,
23,115,,reindeer,animal,4.043051,8,correct,620.387289,
23,116,,donkey,animal,5.541264,6,correct,624.8945403,
23,120,,orange,plant,6.378426,6,correct,489.1675082,
23,122,,dolphin,animal,4.007333,7,correct,619.5847855,
23,124,,blackberry,plant,4.060443,10,incorrect,524.885942,
23,126,,mole,animal,4.60517,4,correct,675.652119,
23,185,,swan,animal,4.962845,4,correct,546.4505532,
24,23,ENGLISH,beaver,animal,3.951244,6,correct,886.2239385,
24,26,ENGLISH,hedgehog,animal,3.637586,8,correct,443.5204251,
24,27,ENGLISH,gull,animal,4.418841,4,correct,728.6982673,
24,30,ENGLISH,carrot,plant,4.976734,6,correct,542.8597421,
24,32,ENGLISH,clove,plant,3.663562,5,correct,605.9040342,
24,36,ENGLISH,mouse,animal,5.805135,5,correct,641.9793892,
24,38,ENGLISH,bunny,animal,3.332205,5,correct,969.5263648,
24,42,ENGLISH,pig,animal,6.660575,3,correct,534.7449319,
24,43,ENGLISH,ant,animal,5.347108,3,correct,540.9992844,
24,44,ENGLISH,eggplant,plant,1.791759,8,correct,554.2301113,
24,47,ENGLISH,gherkin,plant,2.079442,7,correct,435.8552354,
24,49,ENGLISH,wasp,animal,4.682131,4,correct,607.444046,
